frame,acc x,acc y,acc z
836,1.266965,10.090217,0.323328
837,1.516047,10.087822,0.435894
838,1.698069,10.008787,0.474214
839,1.81782,10.001602,0.447869
840,1.89446,9.996812,0.419128
841,2.030977,9.948911,0.447869
842,2.098037,9.970466,0.502954
843,2.030977,9.960886,0.443079
844,1.805845,9.8579,0.308958
845,1.434617,9.831555,0.205972
846,0.998723,9.793235,0.035925
847,0.55804,9.944121,-0.055085
848,0.308958,10.217153,-0.03832
849,0.158071,10.585986,0.110171
850,0.098196,11.000325,0.05269
851,0.172441,11.61345,0.182021
852,0.335303,12.128379,0.287402
853,0.589175,12.566667,0.455054
854,0.955613,12.885205,1.037043
855,1.389111,13.266013,1.566343
856,1.755549,13.254038,2.323169
857,1.925596,12.981006,2.804568
858,1.767524,12.494817,3.137476
859,1.413062,11.922407,3.309917
860,0.799937,11.479329,3.295547
861,0.337698,11.239827,3.353027
862,0.002395,11.048225,3.374583
863,-0.117356,10.914104,3.365002
864,-0.110171,10.777588,3.233276
865,-0.040715,10.703342,2.871628
866,-0.098196,10.660232,2.797383
867,-0.179626,10.552456,2.763853
868,-0.538879,10.47342,2.821333
869,-1.147214,10.46863,2.706372
870,-1.741179,10.140513,2.514771
871,-2.373464,9.498647,1.829795
872,-3.0297,8.487949,1.863325
873,-3.273992,7.472461,2.354304
874,-2.931504,6.952742,2.668052
875,-2.512375,6.974297,2.498005
876,-1.745969,7.268884,1.525627
877,-0.804727,7.276069,0.61073
878,0.102986,7.266489,-0.110171
879,1.051414,6.976692,-0.268242
880,1.535208,6.547983,0.02874
881,1.642983,6.315667,0.196392
882,1.417852,6.234236,0.622705
883,1.065784,6.217471,1.149609
884,0.706531,6.289321,1.494492
885,0.292192,6.492898,1.683699
886,-0.112566,6.667734,1.908831
887,-0.507744,7.005432,2.054927
888,-0.886157,7.4054,2.282454
889,-1.271755,7.838899,2.730322
890,-1.700464,8.241262,3.297942
891,-2.090852,8.58375,4.042793
892,-2.543511,8.923843,4.883445
893,-3.027305,9.290281,5.678591
894,-3.441643,9.642349,6.437813
895,-3.848796,9.81479,6.842571
896,-4.093088,9.915381,7.194639
897,-4.136199,9.922566,7.33355
898,-3.846401,9.639954,6.730005
899,-3.420088,9.20406,6.023474
900,-3.056045,9.122629,5.817502
901,-2.567461,9.285491,5.884563
902,-2.136357,9.529783,5.932463
903,-1.573528,9.927356,5.913303
904,-0.962798,10.320139,5.618716
905,-0.287402,10.526111,5.098997
906,0.225132,10.42552,4.598438
907,0.546064,10.092612,4.29427
908,0.574805,9.740544,3.980522
909,0.342488,9.630374,3.824846
910,-0.220342,10.595566,3.858376
911,-0.64426,12.846885,3.851191
912,-0.440684,15.081438,3.000959
913,-0.229922,16.207097,2.687212
914,0.076641,15.814314,3.118315
915,0.124541,13.850398,3.06802
916,0.201182,11.740386,3.367397
917,0.359253,9.972861,3.899092
918,0.330513,7.517966,3.185376
919,0.428708,5.879773,2.148333
920,0.107776,5.276228,0.965193
921,-0.732876,5.714517,0.184417
922,-1.144819,7.280859,0.857417
923,-0.826282,9.436377,1.999841
924,-0.196392,11.191926,2.308799
925,0.435894,11.620635,1.999841
926,1.001118,11.335627,1.317261
927,1.405876,10.650652,0.522114
928,1.640588,9.802815,-0.05269
929,1.686094,9.034014,-0.306563
930,1.592688,8.485554,-0.122146
931,1.542393,8.229287,0.095801
932,1.571133,8.224497,0.251477
933,1.710044,8.475974,0.265847
934,1.765129,8.938213,0.138911
935,2.076482,9.335786,-0.150886
936,2.256108,9.536968,-0.522114
937,2.335144,9.565708,-0.998723
938,2.430945,9.354946,-1.219065
939,2.524351,9.295071,-1.357976
940,2.723137,9.398057,-1.501677
941,2.965034,9.580078,-1.487307
942,3.192561,9.910591,-1.355581
943,3.489543,10.157278,-1.163979
944,3.604504,10.174043,-0.931663
945,3.460803,9.980046,-0.905317
946,3.07281,9.884246,-0.833467
947,2.627336,9.936936,-0.752036
948,2.220183,10.183623,-0.507744
949,1.755549,10.269844,-0.158071
950,1.367556,10.303374,0.129331
951,1.161584,10.248289,0.268242
952,1.099314,9.908196,0.368833
953,1.099314,9.596843,0.289797
954,1.300496,9.455537,0.143701
955,1.592688,9.577683,-0.062271
956,1.925596,9.936936,-0.275427
957,2.258503,10.298584,-0.361648
958,2.648892,10.562036,-0.560435
959,3.0297,10.595566,-0.792751
960,3.228486,10.46863,-0.960403
961,3.319497,10.212363,-1.094524
962,3.103945,9.984836,-1.23583
963,2.663262,9.948911,-1.238225
964,2.236948,9.929751,-1.130449
965,1.611848,9.798025,-1.2502
966,0.768801,9.496252,-1.290916
967,0.160466,9.649534,-1.166375
968,-0.179626,10.257869,-0.756826
969,-0.198787,10.98356,-0.325723
970,0.282612,11.330837,-0.134121
971,0.948428,11.287727,-0.182021
972,1.745969,11.06499,-0.155676
973,2.421365,11.009905,-0.093406
974,2.936294,11.129656,-0.02874
975,3.113525,11.105706,0.186812
976,2.814148,11.033855,0.074246
977,2.308799,11.256592,0.146096
978,2.189048,11.886482,0.213157
979,2.660867,12.90676,0.273032
980,3.547024,13.867163,0.505349
981,4.114644,13.529465,0.627495
982,3.870352,12.363091,0.517324
983,3.324287,11.869717,0.855022
984,2.699187,11.934382,1.664539
985,2.220183,12.066108,2.110012
986,1.901646,12.121194,2.493215
987,1.322051,11.836187,2.318379
988,0.055085,11.299702,1.539998
989,-1.262175,11.218271,1.27415
990,-1.84656,12.185859,1.774709
991,-1.101709,13.855188,2.203418
992,0.203577,14.839541,2.057322
993,1.295706,15.198794,1.017883
994,1.942361,15.126943,-0.538879
995,2.220183,14.839541,-1.939966
996,2.272874,14.331797,-3.06802
997,2.138752,13.661191,-3.853586
998,1.78908,12.801379,-4.435576
999,1.329236,11.991863,-4.90021
1000,1.156794,11.802656,-4.833149
1001,1.645378,12.054133,-3.853586
1002,2.49082,12.145144,-2.605781
1003,3.230881,11.452983,-1.585503
1004,3.482358,10.339299,-1.147214
1005,3.123105,9.084309,-1.013093
1006,2.260898,8.061636,-1.295706
1007,1.420247,7.424561,-1.468147
1008,0.864602,7.101233,-1.437012
1009,0.546064,6.72761,-1.446592
1010,0.387993,6.320457,-1.437012
1011,0.179626,5.963599,-1.607058
1012,-0.002395,5.709727,-1.83698
1013,-0.117356,5.661826,-2.033372
1014,-0.234712,5.661826,-2.148333
1015,-0.361648,5.489385,-2.325564
1016,-0.481399,5.319338,-2.46208
1017,-0.543669,5.261858,-2.723137
1018,-0.548459,5.352869,-3.08239
1019,-0.708926,5.671406,-2.888394
1020,-1.013093,5.611531,-1.640588
1021,-0.62031,5.45825,-0.208367
1022,0.684976,6.296506,2.165098
1023,1.85614,7.697593,4.272715
1024,1.916016,8.655601,4.91937
1025,0.936453,9.467512,5.642666
1026,-0.58678,10.229128,5.690566
1027,-1.504072,11.718831,6.306086
1028,-1.547183,13.553416,7.884404
1029,-1.508862,14.427598,9.041199
1030,-1.820215,14.267131,9.491462
1031,-2.033372,13.802498,9.20406
1032,-1.688489,13.390554,8.760981
1033,-1.087339,12.813354,8.183782
1034,-0.737666,11.819421,6.73719
1035,-0.732876,10.815908,5.269043
1036,-0.900527,9.992021,3.523074
1037,-1.927991,11.223062,2.632126
1038,-1.144819,14.885046,-0.775986
1039,-0.603545,15.876584,-2.543511
1040,0.091011,15.639478,-0.857417
1041,0.850232,14.010864,0.673
1042,1.738784,10.609937,1.456172
1043,1.904041,7.805369,3.10634
1044,1.973496,7.498806,5.115762
1045,1.25978,8.076006,2.397415
1046,-0.474214,9.065149,0.325723
1047,-1.968706,9.934541,-0.383203
1048,-2.210603,10.494976,-0.196392
1049,-0.802332,9.922566,-0.340093
1050,0.083826,8.095166,-1.702859
1051,0.632285,6.258186,-3.113525
1052,1.518442,5.659431,-3.781736
1053,2.945874,6.581514,-3.614084
1054,4.646338,8.052056,-2.936294
1055,5.951624,9.596843,-2.167493
1056,6.322852,10.859019,-1.326841
1057,5.867798,11.464958,-0.747246
1058,4.864285,11.05062,-0.780776
1059,3.563789,9.778865,-1.154399
1060,2.294429,8.59333,-1.480122
1061,1.305286,7.941885,-1.619033
1062,0.819097,8.109536,-1.477727
1063,0.740061,8.713081,-1.346001
1064,0.996328,9.623188,-0.888552
1065,1.336421,10.348879,-0.550854
1066,1.539998,10.736873,-0.462239
1067,1.575923,10.739268,-0.364043
1068,1.642983,10.41594,-0.361648
1069,1.650168,9.872271,-0.428708
1070,1.762734,9.340576,-0.869392
1071,1.966311,9.022039,-1.113684
1072,2.294429,9.034014,-1.523232
1073,2.735112,9.426797,-1.733994
1074,3.144661,9.898616,-1.664539
1075,3.336262,10.641072,-0.972378
1076,3.144661,11.191926,0.007185
1077,2.806963,11.455378,0.874182
1078,2.280059,11.275752,1.381926
1079,1.81303,10.808723,1.516047
1080,1.381926,10.166858,1.439407
1081,1.075364,9.79084,1.144819
1082,1.084944,9.489067,0.689766
1083,1.302891,9.359736,-0.086221
1084,1.547183,9.295071,-0.989143
1085,1.882485,9.592053,-1.535208
1086,2.205813,9.987231,-1.676514
1087,2.361489,10.291399,-1.484912
1088,2.411785,10.346484,-0.924478
1089,2.253713,10.229128,-0.308958
1090,2.100432,10.157278,0.05748
1091,1.973496,10.334509,0.205972
1092,1.904041,10.554851,0.110171
1093,1.913621,11.062595,-0.191602
1094,2.002236,11.268567,-0.677791
1095,1.916016,11.182346,-1.322051
1096,1.781895,11.199111,-1.659749
1097,1.645378,11.441008,-1.444197
1098,1.8274,12.032578,-0.735271
1099,2.723137,12.775034,0.170046
1100,3.963757,13.809683,1.18314
1101,5.043911,13.915063,1.87051
1102,5.067861,13.050461,1.78429
1103,4.404441,12.691208,1.757944
1104,3.199746,12.727134,2.169888
1105,1.331631,12.425361,2.701582
1106,-0.476609,11.6853,3.515889
1107,-1.23583,11.314072,4.385281
1108,-1.053809,11.07936,4.179309
1109,-0.725691,11.02188,2.864443
1110,-0.895737,11.223062,1.307681
1111,-1.353186,11.572734,-0.124541
1112,-1.465752,12.693604,-0.689766
1113,-0.670605,14.413228,-1.142424
1114,0.656235,15.388,-1.686094
1115,2.045347,15.38321,-2.186653
1116,3.209326,14.619199,-3.209326
1117,3.870352,13.402529,-4.167334
1118,4.26553,12.063713,-4.864285
1119,4.497847,11.151211,-5.065466
1120,4.660708,10.734478,-4.713398
1121,4.828359,10.540481,-3.954177
1122,4.802014,10.277029,-3.182981
1123,4.368516,9.915381,-2.380649
1124,3.587739,9.438772,-1.805845
1125,2.524351,8.943003,-1.369951
1126,1.367556,8.487949,-0.977168
1127,0.387993,8.076006,-0.737666
1128,-0.285007,7.795789,-0.299377
1129,-0.675396,7.494016,-0.079036
1130,-0.764011,7.34792,0.026345
1131,-0.696951,7.079678,-0.04311
1132,-0.548459,6.890471,-0.217947
1133,-0.354463,6.78509,-0.481399
1134,-0.268242,6.69408,-0.732876
1135,-0.239502,6.593489,-0.912502
1136,-0.234712,6.449788,-1.142424
1137,-0.246687,6.456973,-1.27894
1138,-0.332908,6.514453,-1.065784
1139,-0.368833,6.701265,-1.154399
1140,-0.641865,6.811436,-1.087339
1141,-0.958008,7.005432,-0.845442
1142,-1.147214,7.089258,-0.713716
1143,-0.986748,7.079678,0.079036
1144,-0.579595,7.398215,1.379531
1145,-0.100591,8.119116,2.945874
1146,0.335303,9.21843,4.761299
1147,0.718506,10.255474,5.793552
1148,0.546064,10.880574,6.15041
1149,-0.198787,11.726016,6.294111
1150,-0.924478,12.85407,7.570657
1151,-1.27894,14.171331,9.541758
1152,-1.405876,15.086228,11.115286
1153,-0.998723,15.050303,10.698552
1154,-0.359253,14.106665,9.438772
1155,-0.172441,12.324771,7.4054
1156,-0.560435,10.116563,5.621111
1157,-0.888552,8.171807,4.112249
1158,-1.731599,7.110813,1.063389
1159,-2.524351,10.322534,0.902922
1160,-1.901646,12.590618,-2.866838
1161,-0.888552,13.45043,-2.600991
1162,0.637075,14.559324,-0.622705
1163,1.748364,14.180911,0.773591
1164,2.780618,12.370276,0.665815
1165,3.460803,12.399016,3.089575
1166,4.402046,13.46001,3.791316
1167,3.271597,11.891272,1.22146
1168,0.433499,9.469907,-0.098196
1169,-2.574646,6.952742,-0.902922
1170,-4.042793,5.829478,-1.336421
1171,-4.047583,5.350474,-2.062112
1172,-3.372188,4.89542,-3.161426
1173,-2.083667,5.281018,-3.400928
1174,0.335303,7.37666,-2.48603
1175,3.537444,9.881851,-1.504072
1176,6.361172,11.488909,-1.21667
1177,8.032896,12.20981,-0.816702
1178,7.92991,11.807446,-0.59636
1179,6.7803,10.511741,-0.847837
1180,5.245093,9.182505,-1.19751
1181,3.844006,8.401729,-1.25978
1182,2.885999,8.210127,-0.811912
1183,2.48603,8.440049,-0.088616
1184,2.299219,8.981323,0.428708
1185,2.143542,9.644744,0.560435
1186,1.983076,10.284214,0.531694
1187,1.619033,10.466235,0.467029
1188,1.175955,10.40157,0.373623
1189,0.742456,10.178833,0.498164
1190,0.490979,10.011182,0.500559
1191,0.522114,9.865085,0.323328
1192,0.766406,9.733359,0.02874
1193,1.18793,9.450747,-0.421523
1194,1.733994,9.108259,-1.010698
1195,2.177073,8.875942,-1.403481
1196,2.49082,8.832832,-1.762734
1197,2.754272,8.914263,-1.901646
1198,2.948269,9.22801,-1.88488
1199,3.03928,9.647139,-1.714834
1200,3.127896,10.008787,-1.319656
1201,3.221301,10.334509,-0.941243
1202,3.139871,10.3872,-0.62989
1203,2.933899,10.219548,-0.368833
1204,2.519561,10.006392,-0.086221
1205,2.030977,9.80042,0.146096
1206,1.468147,9.738149,0.397573
1207,1.056204,9.968071,0.526904
1208,0.843047,10.483,0.941243
1209,0.716111,11.0602,1.355581
1210,0.768801,11.328442,1.669329
1211,1.132844,11.476934,1.906436
1212,1.834585,11.591895,2.224973
1213,2.818938,11.771521,2.260898
1214,3.618875,11.922407,1.801055
1215,3.925437,11.989468,1.077759
1216,3.647615,11.927197,0.404758
1217,3.599714,12.159514,0.150886
1218,4.140989,13.254038,0.435894
1219,4.95769,14.928157,1.293311
1220,5.218748,14.659915,1.511257
1221,4.184099,13.194163,1.044229
1222,2.445315,12.602593,1.645378
1223,0.761616,12.686418,2.541116
1224,-0.833467,12.279265,3.585344
1225,-1.86572,11.397898,3.846401
1226,-2.924319,10.36325,3.223696
1227,-3.72665,9.845925,2.469265
1228,-4.038003,10.188413,2.361489
1229,-3.472778,11.539204,2.301614
1230,-1.508862,13.349839,2.141147
1231,0.874182,15.105388,1.20709
1232,2.790198,16.408279,-0.778381
1233,3.951782,16.968713,-3.022515
1234,4.639153,16.444204,-4.519402
1235,5.058281,14.966477,-5.407954
1236,5.388794,13.050461,-5.700146
1237,5.604346,11.448193,-5.345684
1238,5.633086,10.36804,-4.641548
1239,5.48699,9.831555,-3.494333
1240,5.058281,9.728569,-2.48124
1241,4.315825,9.280701,-1.7795
1242,3.288362,8.662786,-1.089734
1243,2.138752,7.975415,-0.809517
1244,1.084944,7.537126,-0.661025
1245,0.253872,7.297625,-0.488584
1246,-0.160466,7.141948,-0.352068
1247,-0.404758,7.031777,-0.280217
1248,-0.414338,6.840176,-0.337698
1249,-0.277822,6.569539,-0.641865
1250,-0.177231,6.222261,-1.017883
1251,-0.086221,5.822292,-1.386716
1252,0.050295,5.532495,-1.666934
1253,0.091011,5.271438,-1.853745
1254,-0.00958,5.146897,-2.028582
1255,-0.239502,5.115762,-1.971101
1256,-0.385598,5.281018,-2.162703
1257,-0.869392,5.637876,-2.387834
1258,-1.21667,6.428232,-2.028582
1259,-1.714834,6.691685,-0.929268
1260,-1.535208,6.809041,0.754431
1261,-0.737666,7.872429,3.07281
1262,0.100591,9.759705,5.738467
1263,0.450264,11.64219,7.278464
1264,-0.088616,12.767849,6.912026
1265,-1.046624,13.850398,6.217471
1266,-1.159189,15.706538,7.625742
1267,-1.415457,16.772322,9.486672
1268,-2.339934,15.807129,10.803933
1269,-2.696792,14.509028,11.213481
1270,-2.078877,13.663586,10.530901
1271,-1.437012,12.415781,8.63165
1272,-1.180745,10.602751,6.315667
1273,-1.377136,9.062754,3.305127
1274,-2.536326,10.887759,2.541116
1275,-1.458567,13.905483,-1.046624
1276,0.067061,15.031143,-2.086062
1277,2.038162,15.028748,-1.346001
1278,3.563789,12.85407,0.215552
1279,4.493057,10.231523,1.233435
1280,4.528982,7.980205,-0.007185
1281,2.581831,6.512058,-2.074087
1282,0.074246,6.832991,-2.110012
1283,-1.448987,7.632927,-1.360371
1284,-1.733994,8.784932,-0.687371
1285,-1.005908,9.498647,-0.843047
1286,-0.304167,8.863967,-1.89446
1287,0.04311,7.676038,-3.163821
1288,0.878972,7.671248,-3.127896
1289,2.361489,8.6077,-2.299219
1290,4.088298,9.7621,-1.228645
1291,5.309758,10.504556,-0.450264
1292,6.028264,10.985955,0.05748
1293,6.1073,11.122471,0.390388
1294,5.745652,10.787168,0.467029
1295,4.809199,10.061477,0.301772
1296,3.65001,9.354946,0.143701
1297,2.612966,9.002878,0.246687
1298,1.671724,8.995693,0.301772
1299,1.032253,9.335786,0.330513
1300,0.419128,9.738149,0.462239
1301,-0.055085,10.092612,0.565225
1302,-0.261057,10.358459,0.823887
1303,-0.091011,10.408755,0.934058
1304,0.335303,10.37762,0.881367
1305,1.015488,10.209968,0.555645
1306,1.939966,9.982441,-0.026345
1307,2.761458,9.625583,-0.895737
1308,3.345842,9.254355,-1.631008
1309,3.618875,8.890313,-2.227368
1310,3.62127,8.801697,-2.519561
1311,3.496729,9.038804,-2.402205
1312,3.238066,9.388477,-2.093247
1313,2.936294,9.726174,-1.717229
1314,2.627336,9.869875,-1.21667
1315,2.426155,9.884246,-0.893342
1316,2.232158,9.956096,-0.543669
1317,2.241738,9.984836,-0.421523
1318,2.292034,10.047107,-0.344883
1319,2.421365,10.035132,-0.332908
1320,2.40939,9.78126,-0.134121
1321,2.184258,9.496252,0.062271
1322,1.678909,9.393267,0.514929
1323,1.137634,9.81479,1.128054
1324,0.665815,10.442285,1.717229
1325,0.541274,11.00272,1.963916
1326,0.783171,11.182346,1.733994
1327,1.401086,11.098521,1.252595
1328,2.117197,11.062595,0.725691
1329,2.713557,11.103311,0.146096
1330,3.094365,11.213481,-0.313748
1331,3.523074,11.59429,-0.680186
1332,4.081113,12.353511,-0.838257
1333,4.576882,13.481565,-0.787961
1334,4.572092,13.864768,-0.433499
1335,3.961362,13.052856,-0.160466
1336,3.135081,12.27687,0.524509
1337,2.241738,12.166699,1.520837
1338,1.144819,12.200229,2.212998
1339,0.016765,11.793076,3.000959
1340,-0.66342,11.194321,3.788921
1341,-1.010698,10.408755,3.467988
1342,-1.537603,9.86748,2.600991
1343,-2.201023,9.944121,1.690884
1344,-2.411785,10.753638,1.391506
1345,-1.86093,11.6853,1.640588
1346,-0.584385,12.552297,1.408271
1347,0.617915,12.957056,0.876577
1348,1.810635,13.46001,0.00479
1349,2.986589,13.982124,-1.056204
1350,4.038003,14.101875,-2.172283
1351,4.699028,13.682747,-3.223696
1352,4.811594,12.82533,-4.157754
1353,4.749324,11.840977,-4.629573
1354,4.452341,11.108101,-4.629573
1355,4.212839,10.777588,-4.047583
1356,3.757786,10.703342,-3.127896
1357,3.11592,10.542876,-2.090852
1358,2.39981,10.221943,-1.075364
1359,1.688489,9.589658,-0.198787
1360,1.111289,8.916658,0.234712
1361,0.617915,8.308323,0.316143
1362,0.392783,7.858059,0.124541
1363,0.256267,7.33834,-0.031135
1364,0.483794,6.991062,-0.330513
1365,0.63468,6.842571,-0.771196
1366,0.823887,6.777905,-1.044229
1367,0.886157,6.627019,-1.290916
1368,0.783171,6.531218,-1.489702
1369,0.476609,6.332432,-1.81782
1370,-0.007185,6.138435,-1.985471
1371,-0.467029,6.011499,-2.222578
1372,-0.807122,6.114485,-2.684817
1373,-1.027463,6.330037,-2.900369
1374,-1.233435,7.153923,-3.487148
1375,-1.674119,7.474856,-2.478845
1376,-1.434617,7.283254,-0.380808
1377,0.095801,8.471184,3.209326
1378,1.657354,10.648257,6.873706
1379,1.858535,11.941567,7.838899
1380,0.555645,12.123589,7.33355
1381,-1.635798,12.166699,6.442603
1382,-2.526746,13.131892,7.290439
1383,-2.715952,13.680352,7.932305
1384,-3.278782,12.739109,8.452024
1385,-3.642825,11.441008,8.940608
1386,-3.135081,10.942844,8.401729
1387,-1.88967,10.823093,7.32876
1388,-0.833467,10.475815,6.052214
1389,-0.61552,10.224338,3.602109
1390,-1.355581,12.482842,2.778223
1391,-0.814307,16.094531,0.823887
1392,0.433499,17.325571,-0.05748
1393,2.165098,16.597485,-0.323328
1394,3.930227,13.151052,0.074246
1395,4.667893,9.740544,0.447869
1396,4.528982,6.888076,-0.184417
1397,3.154241,5.879773,-1.647773
1398,1.79866,6.924001,-1.084944
1399,1.025068,8.315508,-0.270637
1400,0.747246,9.18969,-0.220342
1401,0.390388,9.841135,-0.713716
1402,-0.299377,9.441167,-1.932781
1403,-0.886157,8.6077,-3.149451
1404,-0.701741,8.044871,-3.405718
1405,0.407153,8.279583,-2.596201
1406,1.83219,8.847202,-1.587898
1407,2.936294,9.690249,-0.792751
1408,3.67396,10.760823,-0.229922
1409,4.258345,11.862532,0.514929
1410,4.648733,12.23855,1.022673
1411,4.667893,11.65177,1.027463
1412,4.320615,10.602751,0.737666
1413,3.805686,9.84353,0.402363
1414,3.075205,9.302256,0.119751
1415,2.325564,9.062754,-0.112566
1416,1.705254,9.18011,-0.04311
1417,1.302891,9.445957,0.095801
1418,1.034648,9.81958,0.186812
1419,0.993933,10.061477,0.102986
1420,1.077759,10.135723,-0.083826
1421,1.314866,10.123748,-0.399968
1422,1.573528,9.941726,-0.646655
1423,1.81782,9.788445,-1.037043
1424,2.071692,9.745334,-1.314866
1425,2.440525,9.750125,-1.396296
1426,2.632126,9.845925,-1.310076
1427,2.771038,9.886641,-1.22625
1428,2.701582,9.81958,-1.089734
1429,2.543511,9.81958,-0.972378
1430,2.289639,9.841135,-0.912502
1431,2.042952,9.845925,-0.797542
1432,1.906436,9.989626,-0.661025
1433,1.916016,10.269844,-0.404758
1434,2.028582,10.506951,-0.148491
1435,2.260898,10.538086,0.093406
1436,2.445315,10.336904,0.373623
1437,2.47166,10.145303,0.488584
1438,2.44292,9.951306,0.56762
1439,2.210603,9.896221,0.675396
1440,1.83698,9.953701,0.807122
1441,1.405876,10.097402,0.946033
1442,0.977168,10.231523,1.008303
1443,0.708926,10.36325,1.008303
1444,0.742456,10.37283,1.037043
1445,1.008303,10.44468,0.943638
1446,1.348396,10.248289,0.907712
1447,1.83698,9.996812,0.735271
1448,2.339934,9.910591,0.574805
1449,2.897974,10.025552,0.550854
1450,3.350632,10.195598,0.538879
1451,3.623665,10.461445,0.60594
1452,3.925437,10.784773,0.500559
1453,3.999683,11.175161,0.095801
1454,3.863167,11.68051,-0.160466
1455,3.458408,12.322375,-0.261057
1456,2.4525,12.432546,-0.764011
1457,1.120869,12.061318,-1.393901
1458,-0.117356,11.673325,-1.489702
1459,-0.895737,11.464958,-1.403481
1460,-0.953218,11.211086,-1.257385
1461,-0.447869,10.708132,-1.123264
1462,0.167651,10.327324,-1.111289
1463,0.852627,10.090217,-1.166375
1464,1.477727,10.166858,-1.001118
1465,2.030977,10.36804,-0.584385
1466,2.263293,10.487791,-0.205972
1467,2.155518,10.514136,0.129331
1468,1.544788,10.631492,0.407153
1469,0.728086,10.729688,0.888552
1470,-0.021555,10.870994,1.341211
1471,-0.665815,10.911709,1.762734
1472,-1.247805,10.856624,1.908831
1473,-1.604663,10.758428,1.724414
1474,-1.85135,10.712922,1.480122
1475,-1.762734,10.746453,1.015488
1476,-1.422642,10.789563,0.433499
1477,-0.878972,10.626702,-0.387993
