frame,acc x,acc y,acc z
906,0.498164,10.102192,-1.113684
907,0.356858,10.135723,-1.092129
908,0.337698,10.174043,-1.152004
909,0.318538,10.090217,-1.108894
910,0.423918,10.027947,-1.20709
911,0.493374,10.006392,-1.26457
912,0.536484,9.987231,-1.343606
913,0.58678,10.037527,-1.365161
914,0.682581,10.003997,-1.437012
915,0.802332,9.970466,-1.631008
916,0.898132,10.037527,-1.805845
917,0.833467,9.972861,-1.791475
918,0.754431,9.831555,-1.904041
919,0.641865,9.79563,-1.935176
920,0.550854,9.82916,-1.88967
921,0.510139,9.901011,-1.85614
922,0.5772,9.980046,-1.84177
923,0.65863,9.915381,-1.79387
924,0.785566,9.881851,-1.78429
925,0.993933,9.965676,-1.604663
926,1.022673,10.047107,-1.628613
927,0.809517,10.085427,-1.769919
928,0.531694,10.030342,-1.925596
929,0.124541,9.903406,-2.110012
930,-0.258662,9.750125,-2.280059
931,-0.517324,9.714199,-2.167493
932,-0.543669,9.946516,-2.054927
933,-0.63468,10.102192,-1.911226
934,-0.603545,10.219548,-1.609453
935,-0.500559,10.193203,-1.420247
936,-0.328118,10.171648,-1.247805
937,-0.079036,10.154883,-1.070574
938,0.00479,10.023157,-0.938848
939,0.083826,9.994417,-0.823887
940,0.016765,9.944121,-0.799937
941,-0.059875,9.903406,-0.64905
942,-0.170046,10.018367,-0.723296
943,-0.189207,10.142908,-0.912502
944,-0.265847,10.193203,-0.972378
945,-0.273032,10.121353,-1.080154
946,-0.239502,10.066267,-1.041833
947,-0.304167,10.003997,-1.108894
948,-0.325723,9.939331,-1.135239
949,-0.387993,9.975256,-1.175955
950,-0.368833,9.891431,-1.293311
951,-0.313748,9.83395,-1.420247
952,-0.193997,9.75731,-1.513652
953,-0.026345,9.81479,-1.748364
954,0.191602,9.802815,-1.714834
955,0.395178,9.84353,-1.614243
956,0.481399,9.783655,-1.583108
957,0.476609,9.769285,-1.547183
958,0.426313,9.723779,-1.647773
959,0.244292,9.826765,-1.595083
960,0.102986,9.896221,-1.623823
961,-0.031135,9.908196,-1.573528
962,-0.117356,9.798025,-1.702859
963,-0.143701,9.616003,-1.990261
964,-0.182021,9.572893,-2.217788
965,-0.170046,9.687854,-2.349514
966,-0.162861,9.934541,-2.378254
967,-0.148491,10.044712,-2.354304
968,-0.119751,10.248289,-2.236948
969,-0.0479,10.322534,-2.117197
970,0.071851,10.348879,-2.121987
971,0.289797,10.272239,-2.215393
972,0.435894,10.214758,-2.306404
973,0.608335,10.238708,-2.354304
974,0.706531,10.322534,-2.42376
975,0.65863,10.317744,-2.488425
976,0.55804,10.684182,-2.44771
977,0.419128,10.981165,-2.596201
978,0.395178,11.249407,-2.598596
979,0.189207,11.206296,-2.210603
980,0.035925,10.902129,-2.239343
981,0.026345,10.710527,-2.119592
982,0.215552,10.564431,-1.872905
983,0.275427,10.562036,-1.587898
984,0.143701,10.851833,-1.367556
985,-0.431104,11.635005,-1.072969
986,-1.262175,12.408596,-0.900527
987,-2.007026,12.513977,-0.965193
988,-2.088457,12.140354,-0.876577
989,-1.702859,11.630215,-0.160466
990,-1.243015,11.335627,0.5772
991,-0.859812,11.110496,0.967588
992,-0.534089,11.139236,1.075364
993,-0.179626,11.450588,0.821492
994,0.268242,11.735596,0.584385
995,0.936453,11.785891,0.531694
996,1.535208,11.716436,0.5772
997,1.85614,11.493699,0.373623
998,1.930386,11.321257,0.213157
999,1.755549,11.244617,-0.03353
1000,1.525627,11.179951,-0.186812
1001,1.302891,11.129656,-0.313748
1002,1.513652,11.230247,-0.579595
1003,2.035767,11.491304,-0.373623
1004,2.361489,11.730806,0.021555
1005,2.378254,12.011023,0.296982
1006,2.076482,12.2146,-0.119751
1007,1.544788,12.018208,-1.135239
1008,1.24062,11.69009,-1.87051
1009,1.247805,11.615845,-2.272874
1010,1.425037,11.61345,-2.459685
1011,1.614243,11.852952,-2.256108
1012,1.628613,11.958333,-2.117197
1013,1.702859,11.881692,-1.959126
1014,1.863325,11.754756,-1.916016
1015,2.251318,11.852952,-1.204695
1016,2.155518,11.965518,0.03353
1017,1.556763,11.639795,0.500559
1018,1.068179,11.182346,0.093406
1019,1.034648,10.655442,-0.095801
1020,1.223855,10.080637,-0.402363
1021,1.652563,9.469907,-0.778381
1022,2.215393,8.962163,-0.744851
1023,2.44292,8.55022,-0.311353
1024,2.366279,8.116721,-0.146096
1025,2.150728,7.649692,-0.340093
1026,1.997446,7.247329,-0.546064
1027,1.999841,6.904841,-0.740061
1028,1.997446,6.521638,-0.766406
1029,1.966311,6.11688,-0.864602
1030,1.939966,5.807922,-0.967588
1031,1.88488,5.606741,-1.003513
1032,1.710044,5.49657,-0.790356
1033,1.631008,5.601951,-0.701741
1034,1.571133,5.779182,-0.366438
1035,1.547183,5.932463,0.193997
1036,1.456172,6.291716,0.905317
1037,1.180745,6.78988,1.623823
1038,0.560435,7.630532,2.50519
1039,-0.249082,8.353828,3.252437
1040,-0.864602,9.012458,3.764971
1041,-1.072969,9.386082,3.793711
1042,-0.637075,9.575288,4.100273
1043,0.270637,9.673484,4.905
1044,1.214275,9.754915,5.570815
1045,2.009421,9.759705,5.566025
1046,2.612966,9.941726,5.460645
1047,2.859653,10.277029,5.439089
1048,2.744692,10.751243,5.324128
1049,2.39981,11.369158,5.403164
1050,1.908831,11.761941,5.52531
1051,1.626218,11.814631,5.657036
1052,1.535208,11.570339,5.692961
1053,1.571133,10.777588,5.180427
1054,1.729204,9.826765,4.500242
1055,1.985471,8.741821,4.038003
1056,3.09676,8.856782,2.557881
1057,4.84752,12.504397,1.743574
1058,4.129014,13.622871,1.16877
1059,3.884722,14.920972,4.224814
1060,4.052373,17.268091,5.589976
1061,3.257227,18.796113,4.706213
1062,1.956731,17.014219,1.868115
1063,1.18314,11.831396,-1.482517
1064,1.508862,6.322852,-3.283572
1065,2.186653,2.287244,-4.095483
1066,2.160308,0.119751,-4.873865
1067,1.252595,0.229922,-4.634363
1068,-0.895737,2.699187,-3.73144
1069,-2.876418,7.228169,-2.454895
1070,-4.447551,11.678115,-2.014211
1071,-5.575605,15.213164,-1.700464
1072,-5.49657,16.197517,-0.768801
1073,-4.191284,15.476616,0.205972
1074,-1.707649,13.668376,-0.124541
1075,0.280217,11.247012,-1.003513
1076,1.8753,8.902288,-1.575923
1077,3.036885,7.484436,-1.674119
1078,3.793711,6.859336,-1.683699
1079,4.117039,6.959927,-1.88009
1080,4.049978,7.688013,-1.657354
1081,3.547024,8.614885,-1.22625
1082,2.943479,9.541758,-1.092129
1083,2.289639,10.006392,-1.537603
1084,1.678909,10.056687,-2.095642
1085,1.298101,9.81,-2.354304
1086,1.161584,9.738149,-2.361489
1087,0.993933,10.044712,-2.052532
1088,0.570015,10.40636,-1.796265
1089,-0.040715,10.746453,-1.492097
1090,-0.821492,10.705737,-1.017883
1091,-1.623823,10.36325,-0.771196
1092,-2.258503,9.841135,-0.958008
1093,-2.598596,9.522598,-1.113684
1094,-2.644102,9.673484,-0.962798
1095,-2.605781,9.946516,-0.58199
1096,-2.351909,10.281819,-0.114961
1097,-2.009421,10.389595,0.330513
1098,-1.525627,10.253079,0.433499
1099,-1.027463,10.013577,0.347278
1100,-0.5772,9.798025,0.294587
1101,-0.170046,9.764495,0.237107
1102,0.368833,10.068662,0.124541
1103,0.898132,10.39199,-0.155676
1104,1.374741,10.545271,-0.469424
1105,1.604663,10.3872,-0.764011
1106,1.573528,10.207573,-0.977168
1107,1.077759,10.236313,-1.003513
1108,0.296982,10.533296,-1.22625
1109,-0.354463,11.014695,-1.530417
1110,-0.754431,11.371553,-1.882485
1111,-0.732876,11.805051,-2.212998
1112,-0.498164,12.022998,-2.275269
1113,-0.050295,11.800261,-2.172283
1114,0.258662,11.338022,-2.047742
1115,0.548459,10.935659,-1.796265
1116,0.481399,10.772798,-1.214275
1117,-0.143701,11.735596,-0.747246
1118,-0.984353,13.409714,-0.399968
1119,-1.678909,14.027629,-0.01437
1120,-1.853745,13.747412,0.816702
1121,-1.753154,13.323494,1.923201
1122,-1.609453,13.103152,2.502795
1123,-1.408271,13.165422,3.060835
1124,-0.998723,13.539045,3.079995
1125,-0.184417,13.941409,3.056045
1126,0.946033,13.610896,3.269202
1127,1.681304,12.581038,2.5004
1128,2.351909,11.134446,1.571133
1129,2.751877,9.83395,0.079036
1130,3.123105,8.933423,-1.590293
1131,3.520679,8.758586,-2.327959
1132,3.587739,9.649534,-2.088457
1133,2.967429,11.251802,-1.987866
1134,1.765129,12.808564,-2.47166
1135,0.680186,13.814473,-2.773433
1136,-0.067061,14.370117,-2.385439
1137,-0.225132,14.267131,-1.80345
1138,-0.031135,13.725857,-1.578318
1139,0.074246,12.569063,-1.777104
1140,0.352068,11.64219,-1.844165
1141,0.752036,11.412268,-0.864602
1142,0.823887,11.565549,-0.474214
1143,0.797542,11.510464,-0.538879
1144,0.914897,11.223062,-0.538879
1145,1.288521,10.839858,-0.63947
1146,1.88009,10.195598,-0.752036
1147,2.474055,9.383687,-0.847837
1148,2.866838,8.461604,-0.914897
1149,2.953059,7.573052,-1.233435
1150,2.864443,6.69887,-1.609453
1151,2.634521,5.965994,-2.014211
1152,2.512375,5.556445,-2.366279
1153,2.4046,5.223538,-2.648892
1154,2.46687,5.031936,-2.737507
1155,2.565066,4.84752,-2.823728
1156,2.589016,4.744534,-2.701582
1157,2.624941,4.699028,-2.289639
1158,2.615361,4.782854,-1.690884
1159,2.727927,5.041516,-1.075364
1160,2.871628,5.518125,-0.304167
1161,2.603386,6.262976,0.378413
1162,1.652563,7.565867,1.595083
1163,0.280217,8.911868,3.00575
1164,-0.977168,9.970466,3.901487
1165,-1.690884,10.557246,4.548142
1166,-1.590293,11.172766,5.733677
1167,-0.5772,11.472144,6.459368
1168,1.013093,11.493699,7.091653
1169,2.557881,11.117681,7.247329
1170,3.563789,10.832673,6.928792
1171,3.913462,11.024275,6.440208
1172,3.714675,11.338022,5.771997
1173,3.065625,11.438613,5.197192
1174,2.212998,11.232642,5.333708
1175,1.341211,10.674602,4.90979
1176,0.850232,9.953701,3.872747
1177,1.068179,9.220825,2.885999
1178,3.372188,11.867322,1.298101
1179,4.627178,15.675403,-0.490979
1180,3.317102,13.919854,1.23583
1181,3.04407,12.82533,2.40939
1182,3.439248,12.660073,2.366279
1183,2.49082,12.516372,1.238225
1184,0.66342,11.364368,-0.337698
1185,0.059875,9.501042,-0.217947
1186,1.005908,7.757468,0.098196
1187,2.059717,6.471343,-2.162703
1188,2.133962,5.269043,-4.972061
1189,1.185535,5.190007,-5.283413
1190,-0.074246,7.151528,-3.939807
1191,-1.362766,9.84832,-2.680027
1192,-2.658472,11.970308,-1.341211
1193,-3.487148,13.124707,-0.150886
1194,-3.65001,12.985796,0.232317
1195,-3.099155,11.946357,-0.661025
1196,-1.983076,10.4351,-2.193838
1197,-1.123264,9.445957,-2.651287
1198,0.01916,9.079519,-2.177073
1199,0.960403,8.983718,-1.496887
1200,1.587898,8.863967,-1.084944
1201,2.095642,8.863967,-1.195115
1202,2.339934,9.077124,-1.228645
1203,2.50998,9.393267,-1.058599
1204,2.589016,9.501042,-1.377136
1205,2.670447,9.551338,-1.81782
1206,2.828518,9.570498,-2.030977
1207,2.670447,9.821975,-1.966311
1208,2.203418,10.164463,-1.688489
1209,1.458567,10.423125,-1.319656
1210,0.550854,10.46863,-0.972378
1211,-0.474214,10.255474,-0.737666
1212,-1.161584,10.035132,-0.555645
1213,-1.820215,9.745334,-0.574805
1214,-2.339934,9.663904,-0.831072
1215,-2.589016,10.078242,-0.960403
1216,-2.411785,10.911709,-0.730481
1217,-2.057322,11.412268,-0.411943
1218,-1.439407,11.302097,-0.150886
1219,-0.718506,10.480605,0.076641
1220,-0.040715,9.663904,0.136516
1221,0.754431,9.366921,0.217947
1222,1.286125,9.541758,0.141306
1223,1.659749,9.76689,-0.081431
1224,1.781895,9.989626,-0.457449
1225,1.518442,10.255474,-0.809517
1226,0.823887,10.521321,-1.130449
1227,0.088616,10.827883,-1.437012
1228,-0.684976,11.04104,-1.702859
1229,-1.302891,10.959609,-1.992656
1230,-1.453777,10.808723,-2.332749
1231,-1.317261,10.784773,-2.347119
1232,-1.034648,10.962004,-1.954336
1233,-0.59636,11.266172,-1.475332
1234,-0.261057,11.270962,-1.096919
1235,0.021555,11.232642,-0.65863
1236,0.251477,11.05062,0.040715
1237,0.136516,10.957214,0.711321
1238,-0.304167,12.30561,0.821492
1239,-1.19751,14.121035,0.771196
1240,-1.863325,14.190491,0.828677
1241,-1.516047,13.625266,1.654958
1242,-0.795146,13.244458,2.847678
1243,-0.079036,12.770244,3.63085
1244,0.59636,12.367881,3.73623
1245,0.747246,11.797866,3.561394
1246,0.421523,11.136841,2.131567
1247,0.531694,10.578801,1.472937
1248,0.852627,10.296189,0.423918
1249,1.516047,9.8579,-1.087339
1250,2.265688,9.891431,-1.743574
1251,2.680027,10.696157,-1.645378
1252,2.660867,12.068503,-1.571133
1253,1.973496,13.234878,-2.335144
1254,1.27894,14.077925,-3.056045
1255,0.835862,14.437178,-3.108735
1256,0.785566,14.377302,-2.47645
1257,0.977168,13.929434,-1.638193
1258,1.128054,12.86844,-1.343606
1259,1.413062,11.790681,-1.626218
1260,1.882485,11.208691,-1.566343
1261,2.086062,11.151211,-1.106499
1262,1.904041,11.172766,-0.56283
1263,1.79866,11.081755,-0.617915
1264,1.85135,10.890154,-0.807122
1265,2.038162,10.550061,-0.728086
1266,2.306404,9.948911,-0.790356
1267,2.507585,9.16574,-0.704136
1268,2.567461,8.248447,-0.641865
1269,2.351909,7.388635,-0.687371
1270,1.983076,6.749165,-0.773591
1271,1.535208,6.171965,-1.118474
1272,1.108894,5.807922,-1.451382
1273,0.845442,5.671406,-1.441802
1274,0.737666,5.587581,-1.597478
1275,0.778381,5.384004,-1.81303
1276,1.118474,5.266648,-1.774709
1277,1.334026,5.237908,-1.714834
1278,1.654958,5.254673,-1.336421
1279,2.019001,5.225933,-0.804727
1280,2.478845,5.364844,-0.201182
1281,2.644102,5.712122,0.395178
1282,2.299219,6.466553,1.372346
1283,1.413062,7.666458,2.371069
1284,0.301772,9.125024,3.288362
1285,-0.510139,10.262659,3.705095
1286,-0.186812,11.251802,4.097878
1287,0.790356,12.087664,5.52052
1288,2.117197,12.28166,6.859336
1289,3.01054,11.59908,7.297625
1290,3.276387,11.117681,7.822134
1291,2.771038,11.309282,7.807764
1292,1.987866,11.587104,7.240144
1293,0.974773,11.620635,6.282136
1294,0.263452,11.654165,5.846243
1295,-0.158071,11.263777,5.46783
1296,0.0479,10.686577,4.497847
1297,1.722019,11.330837,2.093247
1298,4.428391,15.929275,0.479004
1299,3.396138,14.815591,-0.04311
1300,2.483635,13.462405,3.597319
1301,3.01054,14.604829,5.601951
1302,2.720742,15.28741,5.190007
1303,1.975891,14.861096,3.159031
1304,1.544788,12.463682,0.838257
1305,1.044229,7.699988,-1.669329
1306,1.140029,3.185376,-4.481082
1307,1.86572,1.128054,-6.473738
1308,2.603386,0.895737,-6.7324
1309,2.349514,3.458408,-4.893025
1310,1.410667,7.965835,-2.191443
1311,0.071851,12.712764,-0.445474
1312,-1.587898,15.555652,0.191602
1313,-3.436853,15.708933,0.114961
1314,-4.31343,13.833633,-0.265847
1315,-3.238066,11.721226,-0.708926
1316,-1.731599,9.680669,-1.341211
1317,-0.531694,8.420889,-1.726809
1318,0.512534,7.819739,-1.741179
1319,1.005908,7.714358,-1.623823
1320,1.290916,8.133486,-1.566343
1321,1.489702,8.866362,-1.551973
1322,1.666934,9.630374,-1.307681
1323,1.968706,10.159673,-1.058599
1324,2.105222,10.265054,-0.706531
1325,2.078877,10.015972,-0.512534
1326,1.88488,9.695039,-0.692161
1327,1.671724,9.381292,-1.092129
1328,1.480122,9.239985,-1.465752
1329,1.243015,9.299861,-1.786685
1330,0.969983,9.596843,-1.920806
1331,0.479004,9.977651,-1.714834
1332,-0.055085,10.442285,-1.26457
1333,-0.60115,10.753638,-0.747246
1334,-1.063389,10.796748,-0.395178
1335,-1.233435,10.854229,-0.203577
1336,-1.19272,10.847043,0.141306
1337,-0.773591,10.741663,0.296982
1338,-0.261057,10.389595,0.05269
1339,0.071851,10.138118,-0.146096
1340,0.170046,9.951306,-0.273032
1341,0.088616,9.85311,-0.280217
1342,-0.143701,9.951306,0.050295
1343,-0.354463,10.217153,0.426313
1344,-0.397573,10.370435,0.60594
1345,-0.395178,10.42552,0.502954
1346,-0.378413,10.224338,0.141306
1347,-0.380808,10.018367,-0.399968
1348,-0.512534,10.015972,-0.804727
1349,-0.725691,10.255474,-1.070574
1350,-0.950823,10.648257,-1.468147
1351,-1.101709,11.07936,-1.79387
1352,-0.991538,11.522439,-2.088457
1353,-0.694556,11.673325,-2.165098
1354,-0.510139,11.457773,-2.133962
1355,-0.419128,11.08415,-2.086062
1356,-0.210762,10.827883,-1.678909
1357,-0.00958,10.914104,-0.883762
1358,0.119751,11.263777,-0.01916
1359,0.122146,11.452983,0.785566
1360,-0.251477,11.395503,1.305286
1361,-0.912502,12.24334,1.525627
1362,-1.556763,13.443245,1.456172
1363,-1.465752,13.618081,1.453777
1364,-0.459844,13.194163,2.131567
1365,0.962798,12.91155,2.931504
1366,2.299219,12.200229,3.549419
1367,2.646497,11.096125,3.01054
1368,2.454895,10.344089,1.583108
1369,1.995051,10.427915,0.811912
1370,1.465752,10.765613,-0.069456
1371,1.573528,11.043435,-1.005908
1372,2.160308,11.369158,-1.559158
1373,2.672842,11.812236,-1.767524
1374,2.737507,12.490027,-1.762734
1375,2.215393,13.038486,-2.459685
1376,1.156794,13.51749,-3.041675
1377,0.447869,13.941409,-2.797383
1378,-0.035925,14.338982,-1.810635
1379,0.002395,14.226416,-0.531694
1380,0.213157,13.551021,-0.093406
1381,0.531694,12.341536,-0.349673
1382,0.941243,11.323652,-0.864602
1383,1.516047,10.564431,-1.377136
1384,2.054927,10.277029,-1.27894
1385,2.330354,10.087822,-1.223855
1386,2.311194,9.977651,-1.089734
1387,2.169888,9.845925,-0.962798
1388,2.112407,9.572893,-0.874182
1389,2.131567,9.14179,-0.795146
1390,2.172283,8.468789,-0.986748
1391,2.184258,7.604187,-1.051414
1392,2.179468,6.782695,-1.053809
1393,2.062112,6.148015,-1.17835
1394,1.815425,5.685776,-1.513652
1395,1.633403,5.49178,-1.805845
1396,1.398691,5.283413,-2.083667
1397,1.281335,5.134922,-2.416575
1398,1.319656,5.055886,-2.368674
1399,1.410667,5.087021,-2.074087
1400,1.480122,5.084626,-1.683699
1401,1.563948,5.295388,-1.276545
1402,1.688489,5.527705,-0.64426
1403,1.760339,5.817502,-0.253872
1404,1.650168,6.524033,0.440684
1405,1.26936,7.774233,1.542393
1406,0.428708,9.484277,2.749482
1407,-0.689766,11.304492,4.023633
1408,-1.556763,12.827725,5.46304
1409,-1.470542,13.809683,6.229446
1410,-0.158071,13.948594,6.658154
1411,1.997446,12.978611,7.32397
1412,3.657195,11.555969,8.00655
1413,4.378096,10.648257,8.193362
1414,4.425996,10.583591,7.177874
1415,4.162544,10.973979,6.08814
1416,3.463198,10.98356,5.429509
1417,2.668052,10.712922,5.007986
1418,2.167493,10.255474,4.198469
1419,2.49082,10.164463,2.426155
1420,5.034331,14.434783,-0.225132
1421,3.489543,15.148499,-1.571133
1422,1.575923,12.861255,1.892065
1423,1.805845,13.824053,4.435576
1424,1.369951,14.418018,4.33738
1425,0.177231,13.876743,2.208208
1426,-0.665815,12.114009,1.599873
1427,-0.395178,9.24717,-0.189207
1428,0.450264,6.619834,-0.948428
1429,1.528022,5.649851,-2.406995
1430,1.85135,5.058281,-4.797224
1431,1.535208,4.969666,-5.518125
1432,1.135239,6.234236,-4.732559
1433,0.301772,8.519084,-3.139871
1434,-0.720901,10.741663,-0.764011
1435,-1.88009,12.188254,0.550854
1436,-2.814148,12.92592,0.502954
1437,-2.988984,12.741504,-0.251477
1438,-2.39502,12.078083,-1.398691
1439,-1.367556,11.06978,-1.949546
1440,-0.332908,9.958491,-1.863325
1441,0.598755,9.139395,-1.578318
1442,1.348396,8.705896,-1.477727
1443,1.755549,8.56459,-1.434617
1444,1.853745,8.54543,-1.353186
1445,1.987866,8.828042,-1.18793
1446,2.272874,9.429192,-0.953218
1447,2.430945,10.039922,-0.910107
1448,2.366279,10.293794,-1.032253
1449,2.121987,10.186018,-1.362766
1450,1.82261,9.84832,-1.853745
1451,1.666934,9.546548,-1.88488
1452,1.391506,9.580078,-1.604663
1453,0.924478,9.76689,-1.163979
1454,0.392783,10.116563,-1.025068
1455,-0.282612,10.243499,-0.835862
1456,-1.068179,9.992021,-0.807122
1457,-1.631008,9.83395,-0.986748
1458,-1.906436,9.807605,-1.17356
1459,-1.906436,10.214758,-1.096919
1460,-1.631008,10.720107,-0.785566
1461,-1.25978,10.950029,-0.191602
1462,-1.096919,10.751243,0.58199
1463,-1.087339,10.487791,1.137634
1464,-0.747246,10.272239,1.362766
1465,0.177231,10.293794,1.551973
1466,1.152004,10.593171,1.460962
1467,1.839375,10.456655,0.598755
1468,2.43334,10.471025,0.414338
1469,2.071692,10.308164,0.409548
1470,0.761616,10.260264,0.00479
1471,-0.55325,10.322534,-0.546064
1472,-1.501677,10.339299,-0.905317
1473,-2.141147,10.217153,-1.065784
1474,-2.536326,10.075847,-1.281335
1475,-2.735112,10.128538,-1.389111
1476,-2.694397,10.176438,-1.247805
1477,-2.251318,10.274634,-1.219065
1478,-1.489702,10.255474,-1.209485
1479,-0.701741,10.154883,-1.247805
1480,0.069456,10.947634,-1.583108
1481,0.519719,12.84928,-2.064507
1482,0.740061,13.797708,-2.117197
1483,0.955613,13.024116,-1.415457
1484,1.228645,11.850557,-0.421523
1485,1.463357,11.251802,0.560435
1486,1.542393,11.043435,1.623823
1487,1.17356,11.347603,2.119592
1488,0.61552,11.800261,2.045347
1489,0.126936,11.936777,1.722019
1490,0.122146,11.831396,1.633403
1491,0.694556,11.752361,2.014211
1492,1.573528,11.496094,1.992656
1493,2.574646,11.232642,1.820215
1494,3.561394,10.98835,1.489702
1495,4.485872,10.870994,0.316143
1496,5.094207,10.935659,-0.708926
1497,5.233118,11.251802,-1.592688
1498,4.708608,11.558364,-2.212998
1499,3.834426,11.912827,-2.706372
1500,2.909949,12.343931,-2.634521
1501,2.150728,12.652888,-2.203418
1502,1.25499,12.791799,-1.508862
1503,0.198787,12.645703,-1.092129
1504,-0.950823,12.25292,-0.670605
1505,-1.659749,11.644585,-0.447869
1506,-1.786685,10.825488,-0.59157
1507,-1.425037,10.157278,-0.380808
1508,-0.764011,9.668694,-0.193997
1509,-0.021555,9.362131,0.076641
1510,0.531694,9.225615,0.0
1511,0.979563,9.15616,-0.162861
1512,1.360371,8.957373,-0.63468
1513,2.050137,8.806487,-1.125659
1514,2.838098,8.717871,-1.171165
1515,3.403323,8.509504,-1.113684
1516,3.458408,8.138276,-1.008303
1517,3.209326,7.719148,-1.029858
1518,2.850073,7.465276,-1.051414
1519,2.600991,7.220984,-1.039438
1520,2.474055,7.122788,-1.051414
1521,2.50998,7.034172,-1.125659
1522,2.533931,6.79946,-1.199905
1523,2.646497,6.504873,-1.336421
1524,2.811753,6.375542,-1.247805
1525,2.694397,6.502478,-0.871787
1526,1.86093,6.890471,-0.318538
1527,0.977168,7.630532,0.474214
1528,-0.105381,8.411309,1.271755
1529,-0.967588,9.393267,2.222578
1530,-1.075364,10.190808,2.960244
1531,-0.177231,10.825488,3.848796
1532,1.092129,11.03625,4.052373
1533,2.624941,10.650652,3.592529
1534,3.932622,10.059082,3.343447
1535,4.608018,9.515413,3.271597
1536,4.679868,8.895103,2.641707
1537,4.366121,8.808882,2.363884
1538,3.930227,9.484277,2.804568
1539,3.317102,11.242222,3.705095
1540,2.292034,13.654006,3.901487
1541,0.850232,16.099321,3.820056
1542,0.136516,17.062119,2.692002
1543,0.071851,14.664705,2.050137
1544,0.706531,11.733201,1.690884
1545,1.362766,10.080637,0.148491
1546,1.535208,8.911868,-1.372346
1547,0.835862,8.214917,-1.7795
1548,0.323328,8.298743,-1.046624
1549,0.268242,8.828042,-0.972378
1550,0.409548,9.489067,-1.25499
1551,0.694556,9.948911,-1.489702
1552,0.785566,10.126143,-1.971101
1553,0.723296,10.181228,-2.095642
1554,0.64426,10.018367,-1.710044
1555,0.65384,10.042317,-0.919687
1556,0.725691,10.262659,-0.261057
1557,0.742456,10.322534,0.134121
1558,0.713716,10.238708,0.251477
1559,0.725691,10.277029,-0.074246
1560,0.783171,10.37283,-0.450264
1561,0.811912,10.427915,-0.6251
1562,0.764011,10.516531,-0.510139
1563,0.608335,10.624307,-0.136516
1564,0.270637,10.571616,0.134121
1565,-0.04311,10.332114,0.217947
1566,-0.308958,10.121353,0.011975
1567,-0.56762,9.929751,-0.189207
1568,-0.740061,9.877061,-0.543669
1569,-0.55804,9.956096,-0.864602
