acc x,acc y,acc z
-0.478241,9.829437,-2.258972
-0.553238,9.917618,-2.101852
-0.638504,9.994766,-2.017334
-0.693939,10.065781,-1.92923
-0.737137,10.115204,-1.752289
-0.765213,10.153534,-1.630493
-0.863159,10.170639,-1.505463
-0.867279,10.172577,-1.353149
-0.76387,10.121262,-1.186646
-0.650711,10.031204,-1.01123
-0.524094,9.879211,-0.822662
-0.422546,9.768051,-0.766815
-0.209305,9.734222,-0.785538
-0.010437,9.693512,-0.61702
0.04509,9.609695,-0.403687
0.127731,9.580917,-0.169342
0.084671,9.762375,-0.036835
-0.203354,10.19487,0.087219
-0.414612,10.762405,0.093781
-0.309814,11.226791,-0.07695
0.025864,11.478424,-0.011703
0.340851,11.388412,0.488953
0.436691,10.968063,1.146866
0.411194,10.552902,1.544296
0.729797,10.280899,1.672867
1.082107,10.10527,1.706711
1.382599,9.934555,1.708816
1.487839,9.77243,1.823135
1.200149,9.510223,1.814102
0.915527,9.138473,1.690002
0.61673,8.799408,1.512283
0.395691,8.631073,1.28508
0.252579,8.491241,0.895233
0.203979,8.357574,0.616211
-0.021393,8.031113,0.720306
-0.295303,7.689972,0.963654
-0.560226,7.416962,1.457428
-0.706665,7.285599,1.948532
-0.783295,7.250046,2.205093
-0.782104,7.31076,2.448013
-0.752533,7.407455,2.59404
-0.754211,7.413437,2.566925
-0.699188,7.566452,2.542267
-0.542877,7.707993,2.638763
-0.17247,7.85672,2.618103
0.225159,7.975739,2.757797
0.658096,8.062775,2.795731
1.060806,8.107101,2.708389
1.37236,8.096985,2.634354
1.584137,8.078064,2.500977
1.777573,8.176712,2.615356
1.910522,8.318985,2.795853
2.041122,8.430328,3.021515
2.14772,8.490585,3.204575
2.090744,8.556656,3.341217
1.972992,8.653061,3.425156
1.787125,8.70607,3.395721
1.668991,8.820328,3.503769
1.717606,8.909378,3.619888
1.701202,8.929398,3.823959
1.612823,8.916718,4.186661
1.528976,8.789368,4.566284
1.29956,8.663101,4.829941
1.151962,8.626251,5.028809
1.138702,8.591858,5.247925
1.022522,8.530792,5.201096
0.914825,8.457901,5.040085
0.712219,8.359863,4.780914
0.424591,8.250397,4.259613
-0.14122,8.416748,3.592117
-0.900375,9.46756,3.10495
-1.721664,11.519257,3.949234
-1.850494,13.83461,4.409119
-1.98938,15.060333,3.448059
-2.544403,14.535065,2.182282
-2.678131,11.817276,2.359482
-2.115616,8.351013,3.50354
-0.379196,5.736618,4.771698
1.82341,4.100845,5.429352
3.552109,3.883347,5.258316
4.841339,4.943604,5.021683
5.350189,6.80809,4.872925
4.919968,8.547134,4.495117
4.1026,9.96286,3.763794
3.189179,11.529007,2.897659
2.80574,12.821045,2.018539
2.386581,13.364746,1.081039
1.246277,12.775925,-0.011566
-0.199783,11.455719,-0.909515
-1.694092,9.778412,-1.381592
-3.043137,8.109589,-1.4841
-3.983826,6.889511,-1.634125
-4.395783,6.176941,-1.723007
-4.574799,6.016754,-1.837235
-4.586426,6.37764,-2.120316
-4.307877,7.080872,-2.596603
-3.709427,7.986725,-3.154465
-2.907318,8.861938,-3.512329
-1.996903,9.590347,-3.564697
-1.147919,10.137207,-3.222412
-0.432526,10.483215,-2.441284
0.086029,10.538391,-1.471863
0.306,10.125305,-0.424164
0.467468,9.487717,0.445892
0.541351,8.838776,1.157715
0.33667,8.287659,1.298355
0.227036,8.090836,0.954407
0.076065,8.183472,0.27626
-0.09996,8.510971,-0.637695
-0.120651,8.893112,-1.496826
-0.156906,9.170837,-2.208145
-0.096451,9.270294,-2.716187
-0.158585,9.131851,-2.928451
-0.408661,8.883835,-2.81073
-0.755722,8.631866,-2.635055
-1.160614,8.36026,-2.501953
-1.518387,8.140839,-2.441483
-1.846878,8.081375,-2.445847
-2.064285,8.175537,-2.323273
-2.135269,8.402054,-2.181335
-2.087845,8.671631,-2.194061
-1.90654,8.919189,-2.353775
-1.497986,9.040237,-2.609268
-0.966827,8.974045,-2.715683
-0.532059,8.827652,-2.532242
-0.22757,8.692032,-2.133331
-0.085709,8.691574,-1.709137
-0.111542,8.901398,-1.487701
-0.209305,9.281799,-1.503647
-0.265961,9.863541,-1.706665
-0.205032,10.425659,-2.076126
-0.180328,10.724197,-2.631424
-0.282196,10.66452,-2.966797
-0.333252,10.545197,-3.056107
-0.429398,10.414047,-2.956238
-0.727676,10.475876,-2.76442
-1.330688,10.712646,-2.765091
-1.845779,11.051178,-2.771362
-1.967026,11.256561,-2.667648
-1.88417,11.224915,-2.451874
-1.882355,11.173187,-2.058578
-2.584442,11.548126,-1.968109
-3.452377,13.504227,-2.351715
-3.137116,15.335724,-3.472839
-2.092071,15.419891,-4.019455
-1.60498,14.134979,-3.566986
-1.671402,12.778809,-2.737091
-1.61441,12.169113,-1.975128
-1.306946,11.714996,-1.411209
-1.024216,10.907211,-1.042465
-0.782272,10.037033,-1.092682
-0.264771,9.665298,-1.214035
0.56842,9.645721,-1.591065
1.114639,10.423614,-2.125076
1.723511,11.483414,-2.838409
2.29689,12.289535,-3.870087
2.719009,12.4301,-4.635345
2.816452,12.184357,-4.992355
2.546524,11.653046,-4.941727
2.087662,11.128128,-4.540146
1.811722,10.910675,-3.799881
1.633911,10.877441,-3.000778
1.333893,10.748413,-2.754074
1.025711,10.577194,-2.694992
0.668625,10.156754,-2.680222
0.458527,9.905258,-2.605072
0.132889,9.572433,-2.443527
-0.087433,9.269028,-2.268173
-0.259399,9.037659,-2.293533
-0.504272,8.804779,-2.250351
-0.671783,8.502228,-2.40303
-0.717651,8.192383,-2.364319
-0.879822,7.762176,-2.487793
-1.084824,7.291809,-2.52179
-1.194107,6.704437,-2.092941
-1.156174,6.298431,-1.283127
-0.996613,5.951553,-0.421204
-0.634857,5.680252,0.533066
-0.279282,5.415314,1.458038
0.185959,5.113037,2.057541
0.588745,4.931946,2.193649
0.893295,4.74295,1.921753
1.341995,4.596558,1.700485
1.618225,4.551041,1.33757
1.795074,4.615189,1.134049
1.791229,4.805862,1.002731
1.596878,5.095612,1.034683
1.343857,5.487472,1.46318
1.261734,6.176971,2.391357
0.950775,7.208633,3.2733
0.299667,8.683273,3.829925
-0.328598,10.634613,4.405991
-0.771271,12.289383,4.73613
-0.845459,13.302826,4.712402
-0.676376,13.745819,3.980057
-0.388412,13.369919,3.010559
-0.031311,12.310852,2.618439
0.175201,11.031021,2.960876
0.273666,10.231064,3.708756
0.333023,9.759781,4.050964
-0.054825,9.405518,3.886688
-0.78418,8.966339,3.822754
-1.490402,8.473343,3.940796
-1.75177,8.080841,3.910034
-2.095764,8.864502,4.289978
-3.791626,11.853394,6.302582
-3.651642,15.468628,8.243347
-2.092423,17.271042,6.248383
-1.79422,17.156494,1.720749
-0.826599,14.879868,-1.425049
1.765366,11.300262,0.458023
4.180435,7.143341,1.827988
5.125168,4.07486,2.506104
4.945664,3.051453,2.696258
4.265457,3.547714,2.771957
2.829758,4.511444,2.106995
1.267578,5.600998,0.63089
0.004044,6.781921,-0.855789
-1.309052,7.944138,-1.795731
-2.601013,8.925598,-2.533997
-3.677963,10.08577,-3.023361
-4.554321,11.221191,-3.493607
-4.920654,11.574768,-4.035095
-4.700745,11.018982,-4.007233
-3.870575,9.731522,-3.061173
-2.774231,8.221573,-1.958069
-1.665146,7.100998,-1.283569
-0.434357,6.891037,-0.607208
0.786606,7.479309,0.0383
1.570129,8.255096,0.233948
1.754379,9.000549,-0.07756
1.205246,9.4039,-0.872467
0.418121,9.380569,-1.663132
-0.422165,9.020813,-2.051117
-1.149719,8.608978,-1.994751
-1.564697,8.349136,-1.658249
-1.825867,8.178223,-1.48967
-1.499618,8.111465,-1.464829
-1.012985,7.990433,-1.672424
-0.656006,7.858475,-2.180527
-0.413284,7.728088,-2.760162
-0.280228,7.755676,-3.173233
-0.185501,8.020233,-3.202286
-0.188995,8.375626,-2.935562
-0.189117,8.733917,-2.602417
-0.271545,8.958267,-2.402145
-0.427399,9.104675,-2.250259
-0.56279,9.196793,-2.023102
-0.517212,9.088791,-1.701828
-0.368225,8.958923,-1.406632
-0.227234,9.02153,-1.214386
-0.217484,9.174332,-1.23938
-0.250259,9.338226,-1.510666
-0.360443,9.368713,-1.991928
-0.643036,9.233704,-2.341873
-1.083084,9.165543,-2.501236
-1.542496,9.400513,-2.595917
-2.134811,9.946503,-2.827118
-2.611054,10.657867,-3.197784
-2.953781,11.084595,-3.470505
-3.084717,11.094315,-3.248993
-2.876587,11.031006,-2.604065
-2.62497,10.983231,-1.947815
-3.216232,11.396118,-1.901154
-4.231537,13.519379,-2.239288
-4.033478,15.629364,-3.218124
-2.975967,16.3311,-3.686752
-2.072754,16.09993,-3.621307
-1.205856,15.590668,-3.307053
-0.529465,14.899826,-2.488815
-0.292328,13.45932,-1.75798
-0.222122,11.538055,-1.182938
-0.166046,10.108536,-0.417816
-0.017059,9.227035,0.274139
0.232147,8.609802,0.236603
0.379379,8.898743,-0.534134
0.225189,10.249374,-1.63411
0.183151,11.941101,-3.022003
1.166244,13.589645,-4.570541
2.662384,14.18866,-5.488937
3.332489,13.86438,-5.810623
2.70076,12.983261,-5.253784
1.548233,11.811645,-4.265335
0.484421,10.679535,-3.404251
-0.455139,9.473541,-2.971634
-0.391388,8.840042,-2.442459
-0.443726,8.334747,-2.05365
-0.661392,8.097488,-2.299545
-0.359589,8.156952,-2.245758
-0.462433,8.307938,-2.349029
-0.002548,8.479019,-2.20076
0.048538,8.48053,-1.899353
-0.003265,8.302551,-1.65567
-0.16272,7.924942,-1.655334
-0.551102,7.397903,-1.78241
-0.794785,6.794556,-1.68576
-0.966568,6.203964,-1.203491
-0.645859,5.778671,-0.545792
-0.338745,5.351105,0.281982
0.347137,5.098618,1.279831
0.631104,4.86731,1.893601
0.885696,4.604019,2.163422
1.110825,4.531403,2.115738
1.340302,4.577744,1.959076
1.34024,4.679092,1.545624
1.356522,4.767014,0.932236
1.151566,4.881699,0.642014
0.916412,5.16806,0.631836
0.587936,5.872162,1.104279
0.326172,6.944855,2.090683
-0.062744,8.842422,3.462067
-0.6026,11.42273,5.074875
-1.288528,13.727768,7.134872
-1.600555,14.787445,8.202362
-1.966049,14.133682,7.338196
-1.563065,12.624451,5.684372
-0.819412,10.990067,3.818375
-0.323532,9.720642,3.185074
-0.240509,8.754868,3.22258
0.078583,8.411179,2.813141
0.016251,10.309631,2.432419
-1.829392,15.313675,5.472412
-1.073517,19.309692,5.283356
0.185013,19.154785,0.900559
0.041855,17.577072,-2.925919
0.408539,12.434067,-0.912277
2.040085,7.424087,2.102966
2.73291,4.39502,3.468948
3.453903,3.383758,4.080231
4.166275,3.329498,2.763351
3.288452,3.447052,0.705368
1.790604,3.986252,-1.133758
0.75882,5.014282,-2.395111
-0.138977,6.5327,-2.928101
-1.311539,8.190353,-3.271286
-2.918076,9.81752,-4.010895
-4.572235,11.545624,-4.651657
-5.075699,13.65271,-5.351929
-4.730286,13.765427,-5.531723
-4.370178,11.914383,-4.295639
-3.901444,9.197952,-2.023483
-3.128677,7.080933,-0.06897
-1.817749,5.997223,1.484848
-0.493301,6.037811,2.35376
0.026321,6.759582,2.226166
-0.004791,7.818207,1.281113
-0.408905,8.942398,0.003235
-0.696747,9.658081,-0.984818
-0.820312,9.985489,-1.810394
-1.087463,9.928848,-2.229385
-1.523804,9.511337,-1.946289
-1.636078,8.887054,-1.315094
-1.420166,8.270996,-1.001831
-1.120605,7.882935,-1.218094
-0.649048,7.761475,-1.802582
-0.043015,7.895233,-2.283234
0.298523,8.05864,-2.416412
0.403061,8.284439,-2.281876
0.19722,8.55603,-2.014221
0.009384,8.771194,-1.892609
-0.087601,8.967194,-1.832855
-0.136353,9.106338,-1.799255
-0.132568,9.094315,-1.667328
-0.249268,8.949448,-1.507263
-0.457886,8.735947,-1.405014
-0.651108,8.539307,-1.316101
-0.822495,8.44371,-1.309403
-0.889847,8.693802,-1.468887
-0.805084,9.227249,-1.70752
-0.575104,9.830841,-2.233063
-0.475891,10.08902,-2.908203
-0.701096,9.874496,-3.30983
-1.187576,9.466904,-3.199326
-1.501068,9.451279,-2.948212
-1.73674,9.847305,-2.86705
-2.028702,10.42102,-2.820648
-2.335983,10.75296,-2.658661
-2.255203,10.684128,-2.078354
-2.079269,10.499756,-1.423355
-1.923752,10.412521,-1.063293
-2.310074,11.011932,-1.108978
-3.261978,13.070572,-1.819809
-3.480759,15.360733,-2.861984
-2.622498,16.312576,-3.434708
-1.612045,15.748825,-3.436646
-1.042313,14.147507,-3.076401
-1.018585,12.993027,-3.003052
-1.145065,12.034378,-2.753555
-1.0784,10.991379,-1.870667
-0.519913,10.256912,-0.690216
0.028961,9.612518,-0.234619
0.351639,9.369461,-0.970367
0.306595,9.841156,-1.915817
0.205902,10.693069,-2.788208
0.519165,11.874893,-4.042206
1.332199,12.840271,-4.921036
2.053772,13.211563,-5.308945
1.9552,12.817947,-4.885635
1.310028,12.020172,-4.04921
0.5634,11.071976,-3.28183
-0.091324,10.017166,-2.697555
-0.110641,9.342529,-2.234634
-0.343628,8.680481,-2.105911
-0.133881,8.524796,-1.897629
-0.126297,8.483627,-1.82399
-0.192047,8.496552,-1.979141
-0.39183,8.548233,-2.028305
-0.156067,8.514999,-1.869537
-0.194122,8.315842,-1.748123
-0.409393,8.040405,-1.730164
-0.561096,7.801681,-1.508667
-0.582993,7.491928,-1.287262
-0.398727,7.103683,-0.95137
-0.216949,6.650894,-0.476227
0.161713,6.221664,0.150681
0.530029,5.794083,0.540359
0.761108,5.501877,0.942108
0.997543,5.282822,1.072235
1.102936,5.304306,1.099548
1.262344,5.325088,0.905472
1.358444,5.238586,0.794327
1.317505,5.151916,0.527313
1.137741,5.167572,0.572906
0.760086,5.425308,0.687653
0.445099,6.035507,0.994385
-0.047028,6.940872,1.455765
-0.684708,8.207764,2.025375
-1.73941,10.070267,2.758728
-2.522125,12.173645,4.20491
-2.776718,13.756058,5.441681
-2.545303,13.813156,5.55159
-2.246521,12.366486,4.867096
-1.507721,10.458832,4.407501
-0.562912,9.289978,4.319183
-0.05545,8.652908,4.4086
0.123688,8.247101,4.198349
0.124115,8.240677,3.585434
0.09993,9.342728,2.709091
-1.961441,13.695862,4.279633
-2.440659,18.285904,5.650909
-0.527878,19.239044,1.509934
-0.037918,18.023438,-3.649643
0.180878,13.869522,-3.498932
1.355408,9.353882,-0.04837
2.47348,5.51619,1.945465
3.097672,3.591019,2.720718
3.712235,3.537842,3.030807
4.018097,4.723038,2.821808
3.200302,5.854889,1.984253
1.638,6.970184,0.584854
0.299332,8.157654,-1.070938
-0.625366,8.949188,-2.583954
-1.812012,9.454147,-3.924545
-3.128311,10.455856,-4.533829
-3.731216,11.695175,-4.547409
-3.743072,12.174698,-4.590027
-4.163406,11.406677,-4.354263
-4.625061,9.911301,-3.759064
-4.835815,8.116028,-2.867722
-4.261581,6.707931,-2.100952
-2.685226,6.593521,-1.043289
-0.830063,7.33461,0.211365
0.580124,8.407013,0.684982
0.980011,9.568802,0.056168
0.606781,10.271164,-1.056366
0.008621,10.47493,-2.099381
-0.520309,10.248474,-2.595718
-0.92099,9.703232,-2.500427
-1.165329,9.028671,-1.876938
-1.185028,8.523254,-1.258209
-0.78421,8.377609,-0.890305
-0.215958,8.554413,-0.93399
0.29985,8.84021,-1.223007
0.598633,9.081039,-1.499069
0.682342,9.168762,-1.66893
0.522766,9.045807,-1.587295
0.162415,8.835129,-1.511993
-0.306808,8.662827,-1.678818
-0.778046,8.537872,-1.979614
-1.209946,8.457336,-2.315796
-1.60141,8.540833,-2.530411
-1.831757,8.843704,-2.527527
-1.80336,9.310333,-2.387833
-1.593887,9.688889,-2.057083
-1.408005,9.692505,-1.375931
-1.208664,9.419449,-0.581436
-0.930359,9.120239,-0.145828
-0.674469,8.919281,-0.174484
-0.515518,8.751663,-0.44342
-0.516769,8.55751,-0.748062
-0.743607,8.462753,-1.231338
-1.100067,8.603363,-1.987701
-1.262634,8.971741,-2.89296
-1.176025,9.348679,-3.572952
-0.984436,9.570389,-3.850601
-0.910965,9.554596,-3.647492
-0.977448,9.335495,-3.256546
-1.119309,9.018433,-2.775391
-1.231399,8.919281,-2.373016
-1.184418,9.232285,-2.253388
-1.164475,10.412521,-2.552033
-1.055313,11.957535,-2.971024
-0.800003,12.766052,-3.163452
-0.395645,13.01564,-3.128449
-0.158844,13.007584,-3.03981
-0.140945,12.807785,-3.166428
-0.34259,12.38002,-3.729996
-0.855362,11.912491,-4.119232
-1.335724,11.765106,-3.823242
-1.546982,11.828323,-3.492401
-1.492279,11.880035,-3.456039
-1.324463,11.630936,-3.328171
-0.963165,11.064743,-2.975967
-0.643173,10.271011,-2.490646
-0.272705,9.46167,-2.01445
0.309387,8.76564,-1.660706
1.006592,8.392273,-1.427338
1.5896,8.134583,-1.459076
1.934128,8.080505,-1.715439
1.92865,8.317902,-2.103561
1.800964,8.70752,-2.615875
1.462662,9.113739,-3.021378
1.303955,9.383743,-3.362183
1.128403,9.492233,-3.498566
0.880417,9.530823,-3.379944
0.860504,9.468353,-2.978638
0.772522,9.402328,-2.370529
0.705841,9.306152,-1.972839
0.795105,9.358948,-1.565811
0.95369,9.475967,-1.403778
1.180588,9.491104,-1.29776
1.557053,9.428635,-1.354172
1.591309,9.211273,-1.536697
1.565201,8.87941,-1.347717
1.364288,8.606049,-1.180878
1.129135,8.364182,-1.021729
0.756546,8.155106,-0.932602
0.581726,8.137405,-0.775497
0.375717,8.111511,-0.701233
0.327301,8.212662,-0.646942
0.258179,8.190048,-0.836166
0.183594,8.089813,-1.101898
0.104507,7.902557,-1.212097
0.047607,7.80307,-1.181717
0.223587,7.727982,-1.097366
0.27652,7.74881,-0.806137
0.253677,7.852112,-0.369186
0.22728,8.15564,-0.026245
0.331253,8.67424,0.314392
0.506439,9.161835,0.490753
0.689621,9.4953,0.426224
0.929123,9.769241,0.450089
1.367142,9.907562,0.354111
1.791199,9.842346,0.376358
2.009583,9.426575,0.223907
1.83847,9.234634,-0.172562
1.51329,9.856079,-0.761658
1.195175,11.291748,-1.314819
0.952118,12.535889,-1.854355
0.755447,13.186066,-2.190933
0.828659,12.951996,-2.248917
0.905472,11.643494,-2.129532
0.65184,9.905426,-1.678436
0.257278,8.342178,-0.996292
-0.078659,7.458878,-0.575455
-0.199814,7.192566,-0.608932
-0.196548,7.593781,-1.198502
-0.157852,8.243546,-1.993668
