frame,acc x,acc y,acc z
843,-0.239502,10.130933,-1.968706
844,-0.342488,10.066267,-1.906436
845,-0.55325,10.073452,-1.81782
846,-0.766406,10.068662,-1.707649
847,-0.682581,10.128538,-1.683699
848,-0.55325,10.356064,-1.659749
849,-0.368833,10.504556,-1.700464
850,-0.031135,10.559641,-1.757944
851,0.313748,10.588381,-1.774709
852,0.526904,10.533296,-1.820215
853,0.673,10.42073,-1.753154
854,0.65863,10.310559,-1.738784
855,0.507744,10.336904,-1.78429
856,0.443079,10.46384,-1.8274
857,0.380808,10.617122,-1.781895
858,0.270637,10.691367,-1.683699
859,0.253872,10.870994,-1.542393
860,0.328118,11.07457,-1.372346
861,0.344883,11.203901,-1.24541
862,0.380808,11.223062,-1.123264
863,0.306563,11.115286,-1.063389
864,0.112566,10.976375,-0.986748
865,-0.186812,10.760823,-0.993933
866,-0.598755,10.564431,-0.958008
867,-0.955613,10.394385,-1.020278
868,-1.2502,10.286609,-1.032253
869,-1.556763,10.176438,-1.005908
870,-1.825005,10.219548,-0.792751
871,-1.88488,10.38241,-0.637075
872,-1.693279,10.588381,-0.57241
873,-1.334026,10.772798,-0.59636
874,-1.120869,10.914104,-0.55325
875,-1.149609,10.789563,-0.833467
876,-1.22146,10.621912,-1.017883
877,-1.413062,10.269844,-1.353186
878,-1.504072,9.630374,-1.336421
879,-1.470542,9.103469,-0.857417
880,-1.21188,8.818462,-0.469424
881,-0.914897,8.765771,-0.241897
882,-0.665815,8.811277,-0.002395
883,-0.555645,8.916658,0.02874
884,-0.5772,9.086704,-0.040715
885,-0.62989,8.983718,-0.031135
886,-0.65863,8.847202,0.071851
887,-0.59636,8.674761,0.143701
888,-0.584385,8.62207,0.148491
889,-0.459844,8.59333,0.330513
890,-0.464634,8.61728,0.443079
891,-0.392783,8.646021,0.713716
892,-0.275427,8.696316,0.821492
893,-0.189207,8.760981,0.874182
894,-0.213157,8.868757,0.780776
895,-0.325723,9.002878,0.914897
896,-0.416733,9.278306,1.125659
897,-0.459844,9.445957,1.369951
898,-0.60115,9.553733,1.712439
899,-0.756826,9.639954,1.731599
900,-0.831072,9.680669,1.89446
901,-0.795146,9.618398,1.966311
902,-0.718506,9.534573,2.033372
903,-0.66821,9.671089,2.011816
904,-0.637075,9.999207,2.165098
905,-0.876577,10.44947,2.284849
906,-1.053809,10.672207,2.337539
907,-1.120869,11.02188,2.45729
908,-1.101709,11.227852,2.579436
909,-0.895737,11.309282,2.517166
910,-0.62031,11.182346,2.41897
911,-0.526904,10.815908,2.234553
912,-0.488584,10.418335,2.083667
913,-0.416733,10.013577,1.700464
914,-0.395178,9.709409,1.369951
915,-0.285007,9.539363,0.958008
916,-0.170046,9.443562,0.574805
917,-0.026345,9.402847,0.294587
918,-0.172441,9.503438,0.110171
919,-0.524509,9.793235,-0.399968
920,-0.809517,10.312954,-1.266965
921,-0.838257,10.751243,-1.590293
922,-0.332908,11.261382,-1.015488
923,0.479004,11.905642,0.524509
924,0.735271,12.710369,2.191443
925,0.555645,13.256433,2.981799
926,-0.217947,12.88281,2.529141
927,-1.374741,11.412268,1.334026
928,-1.853745,9.702224,0.007185
929,-1.22146,8.260422,-0.673
930,-0.035925,7.383845,-1.346001
931,1.013093,7.534731,-2.186653
932,1.616638,8.358618,-2.313589
933,1.159189,9.103469,-1.944756
934,0.076641,9.410032,-1.571133
935,-0.519719,9.596843,-1.350791
936,-0.213157,10.013577,-1.444197
937,0.790356,10.104587,-1.733994
938,1.750759,9.891431,-2.498005
939,2.304009,9.402847,-3.113525
940,2.49082,9.235195,-3.67396
941,2.426155,9.479487,-3.62127
942,2.174678,9.886641,-2.909949
943,1.999841,10.197993,-2.062112
944,1.84656,10.133328,-1.748364
945,1.647773,10.011182,-1.561553
946,1.111289,9.651929,-1.489702
947,0.821492,9.740544,-1.707649
948,0.555645,9.594448,-1.726809
949,0.500559,9.328601,-1.84656
950,0.814307,9.268726,-2.402205
951,1.238225,9.642349,-2.383044
952,1.367556,9.501042,-2.591411
953,1.314866,9.369316,-2.699187
954,1.300496,9.405242,-3.0297
955,1.357976,9.376501,-3.003354
956,1.571133,9.637559,-2.845283
957,1.7795,9.524993,-2.981799
958,1.937571,9.675879,-2.912344
959,1.995051,9.680669,-2.866838
960,1.769919,9.807605,-2.850073
961,1.21667,9.611213,-3.06802
962,0.246687,8.813672,-3.602109
963,-0.55325,7.213799,-4.842729
964,-0.155676,8.399333,-5.060676
965,-0.007185,8.581355,-4.675078
966,0.244292,8.962163,-4.064348
967,0.778381,9.362131,-3.920647
968,1.369951,9.764495,-3.611689
969,1.942361,10.322534,-2.998564
970,2.050137,10.516531,-2.814148
971,1.762734,10.504556,-3.079995
972,1.2023,10.128538,-3.420088
973,0.641865,9.747729,-3.73144
974,0.067061,9.472302,-3.954177
975,-0.344883,9.290281,-4.009263
976,-0.483794,9.580078,-3.709885
977,-0.414338,9.889036,-3.180586
978,-0.220342,10.056687,-2.660867
979,0.081431,10.044712,-2.421365
980,0.129331,10.181228,-2.464475
981,0.050295,10.238708,-2.488425
982,0.093406,10.40157,-2.814148
983,0.340093,10.770403,-2.926714
984,0.589175,11.175161,-3.027305
985,0.898132,11.445798,-3.05844
986,1.166375,11.687695,-3.10155
987,1.262175,11.481724,-2.917134
988,1.393901,11.0602,-3.00575
989,1.547183,10.624307,-3.070415
990,1.693279,10.128538,-3.130291
991,2.019001,10.116563,-3.178191
992,2.668052,11.543994,-3.530259
993,3.379373,13.481565,-3.182981
994,3.68354,13.953384,-3.079995
995,3.108735,13.225298,-3.264412
996,2.256108,12.216995,-2.948269
997,1.293311,11.565549,-2.023792
998,0.522114,11.644585,-1.044229
999,-0.02874,11.6374,-0.191602
1000,-0.268242,11.481724,0.263452
1001,-0.162861,11.263777,0.177231
1002,0.308958,11.335627,-0.419128
1003,1.132844,11.836187,-0.807122
1004,1.978286,12.24334,-0.869392
1005,2.720742,12.358301,-1.293311
1006,3.04407,12.20981,-2.184258
1007,2.636917,11.572734,-3.178191
1008,2.363884,11.316467,-4.833149
1009,1.609453,11.232642,-5.47262
1010,0.926873,11.215876,-6.327642
1011,0.330513,11.371553,-6.377937
1012,-0.222737,11.783496,-6.100115
1013,-0.677791,12.207415,-5.805527
1014,-0.344883,12.992981,-5.779182
1015,-0.256267,13.170212,-5.213958
1016,-0.483794,12.691208,-4.823569
1017,-0.797542,11.6853,-4.596042
1018,-0.759221,10.643467,-4.493057
1019,-0.711321,9.81,-4.095483
1020,-0.301772,8.966953,-4.016448
1021,0.143701,8.413704,-3.820056
1022,0.366438,7.879614,-3.544629
1023,0.438289,7.225774,-3.415298
1024,0.119751,6.545588,-3.456013
1025,-0.366438,5.860613,-3.307522
1026,-0.696951,5.52052,-3.135081
1027,-1.113684,5.407954,-2.811753
1028,-1.384321,5.443879,-2.196233
1029,-1.468147,5.556445,-1.669329
1030,-1.441802,5.965994,-1.056204
1031,-1.2502,6.452183,-0.617915
1032,-1.015488,6.924001,-0.237107
1033,-0.948428,7.247329,0.081431
1034,-0.902922,7.505991,0.232317
1035,-0.840652,7.522756,0.232317
1036,-0.795146,7.41498,0.071851
1037,-0.802332,7.266489,0.055085
1038,-0.783171,7.182664,0.141306
1039,-0.742456,7.242539,0.316143
1040,-0.55325,7.491621,0.622705
1041,-0.330513,7.877219,0.969983
1042,-0.093406,8.581355,1.736389
1043,0.378413,9.587263,2.648892
1044,0.802332,10.985955,3.925437
1045,1.025068,12.652888,5.130132
1046,1.219065,15.102993,6.289321
1047,1.132844,17.430952,6.521638
1048,0.716111,18.302739,4.210444
1049,-0.306563,17.586628,2.265688
1050,-1.22146,15.605947,2.356699
1051,-1.346001,12.806169,2.014211
1052,-1.324446,9.709409,0.967588
1053,-1.252595,7.256909,0.225132
1054,-0.986748,6.428232,0.112566
1055,-1.2502,7.822134,-0.732876
1056,-2.596201,10.442285,-1.302891
1057,-2.919529,13.47438,-1.678909
1058,-1.947151,15.251484,-1.314866
1059,-0.502954,14.281501,-0.455054
1060,-0.275427,11.211086,0.402363
1061,-0.268242,8.53585,-0.502954
1062,0.172441,6.301296,-3.262017
1063,1.077759,4.8571,-5.712122
1064,2.356699,4.670288,-6.021079
1065,3.257227,5.103787,-5.077441
1066,3.393743,5.815107,-3.975732
1067,3.130291,7.711963,-2.905159
1068,2.960244,10.121353,-2.359094
1069,2.708767,11.819421,-2.572251
1070,2.648892,12.24813,-2.747087
1071,2.751877,11.795471,-2.790198
1072,2.675237,10.806328,-2.692002
1073,2.323169,9.788445,-2.699187
1074,1.355581,9.053174,-1.932781
1075,0.359253,9.091494,-1.355581
1076,-0.239502,8.828042,-1.549578
1077,0.186812,9.220825,-2.143542
1078,1.152004,9.83874,-2.227368
1079,2.081272,9.635164,-2.519561
1080,2.689607,9.24238,-3.187771
1081,2.749482,8.796907,-3.666775
1082,2.43334,8.62686,-3.580554
1083,2.114802,8.610095,-3.451223
1084,1.935176,8.729846,-3.388953
1085,2.105222,9.398057,-3.525469
1086,2.191443,10.336904,-3.288362
1087,1.695674,9.740544,-3.343447
1088,1.281335,7.951465,-4.136199
1089,1.975891,9.740544,-3.499124
1090,1.599873,9.85311,-3.216511
1091,1.195115,9.699829,-2.878813
1092,0.706531,9.053174,-2.993774
1093,0.423918,8.957373,-2.965034
1094,0.332908,9.22322,-2.670447
1095,0.308958,9.618398,-2.612966
1096,0.201182,9.83395,-2.181863
1097,0.158071,9.980046,-2.093247
1098,0.143701,10.083032,-2.299219
1099,0.258662,9.695039,-2.972219
1100,0.512534,9.618398,-3.808081
1101,0.732876,9.714199,-3.865562
1102,0.840652,9.81,-3.815266
1103,0.778381,9.965676,-3.729045
1104,0.843047,10.226733,-3.882327
1105,1.128054,10.526111,-3.903882
1106,1.451382,10.545271,-4.208049
1107,1.913621,10.681787,-4.514612
1108,2.105222,10.44947,-4.473896
1109,2.371069,10.748848,-3.906277
1110,2.703977,11.038645,-3.204536
1111,2.840493,11.479329,-2.43813
1112,2.900369,11.884087,-1.609453
1113,2.718347,11.881692,-0.771196
1114,2.596201,12.30561,-0.395178
1115,2.804568,14.130615,-0.807122
1116,2.874023,14.262341,-0.998723
1117,2.883604,14.475498,-1.918411
1118,2.215393,14.425203,-1.825005
1119,1.319656,14.14738,-0.55804
1120,0.385598,13.615686,0.299377
1121,-0.177231,13.103152,0.706531
1122,-0.153281,13.004956,0.998723
1123,0.807122,13.076807,0.550854
1124,2.737507,13.239668,-0.579595
1125,4.631968,12.746294,-2.258503
1126,5.235513,11.69009,-3.293152
1127,4.730164,10.763218,-5.403164
1128,3.542234,10.583591,-6.358777
1129,2.371069,10.861414,-6.14562
1130,1.810635,11.510464,-6.241421
1131,1.429827,11.591895,-6.401887
1132,0.780776,11.955938,-6.045029
1133,-0.088616,11.927197,-5.829478
1134,-0.962798,12.334351,-4.979246
1135,-1.877695,12.046948,-4.653523
1136,-2.229763,11.69967,-4.229604
1137,-2.143542,11.04104,-4.102668
1138,-1.686094,10.027947,-4.26074
1139,-1.20709,8.945398,-4.234395
1140,-0.665815,7.95865,-4.311035
1141,-0.177231,7.046147,-4.145779
1142,0.112566,6.215076,-3.891907
1143,0.193997,5.379214,-3.793711
1144,0.172441,4.576882,-3.800896
1145,0.081431,4.145779,-3.966152
1146,-0.093406,4.002078,-4.150569
1147,-0.318538,4.030818,-4.239185
1148,-0.55325,4.253555,-3.975732
1149,-0.684976,4.708608,-3.760181
1150,-0.759221,5.479805,-3.168611
1151,-0.56762,6.421047,-2.517166
1152,-0.205972,7.431746,-1.765129
1153,0.079036,8.334668,-0.912502
1154,0.220342,8.916658,0.146096
1155,0.119751,9.321416,0.869392
1156,-0.210762,9.582473,1.504072
1157,-0.495769,9.685459,1.717229
1158,-0.720901,9.608818,1.872905
1159,-0.61073,9.704619,2.292034
1160,-0.426313,10.042317,3.10155
1161,-0.05269,10.609937,4.059558
1162,0.232317,11.759546,5.803132
1163,0.493374,13.737832,7.800579
1164,0.661025,16.161592,8.504714
1165,0.356858,17.466877,4.792434
1166,-0.296982,17.380657,2.112407
1167,-1.022673,15.694563,2.167493
1168,-1.144819,12.88281,1.786685
1169,-1.293311,9.534573,1.324446
1170,-1.367556,6.207891,0.397573
1171,-1.013093,3.887117,-0.076641
1172,-0.203577,3.400928,0.455054
1173,0.292192,5.407954,-0.007185
1174,-1.374741,9.647139,-1.635798
1175,-2.742297,14.286292,-2.284849
1176,-1.034648,18.479971,-0.828677
1177,1.714834,19.344573,1.403481
1178,1.408271,15.423926,0.929268
1179,1.238225,10.779983,-1.85135
1180,1.82261,7.340735,-5.249883
1181,3.046465,5.070256,-7.704778
1182,3.527864,3.927832,-8.102351
1183,2.478845,2.761458,-6.459368
1184,0.471819,3.422483,-3.197351
1185,-0.550854,6.265371,-1.046624
1186,-0.570015,9.491462,-1.755549
1187,0.239502,11.788286,-2.816543
1188,1.008303,12.84928,-2.833308
1189,1.367556,11.912827,-3.00575
1190,1.82261,10.957214,-2.773433
1191,1.83219,9.893826,-2.47645
1192,1.410667,9.187295,-1.951941
1193,0.766406,9.321416,-1.27415
1194,0.390388,9.378896,-1.427432
1195,0.768801,9.096284,-2.799778
1196,1.729204,9.742939,-3.166216
1197,2.483635,9.869875,-3.089575
1198,2.653682,9.577683,-3.159031
1199,2.538721,9.15616,-3.250042
1200,2.129172,8.765771,-3.235671
1201,1.88488,8.56938,-3.520679
1202,1.719624,8.358618,-4.152964
1203,1.908831,8.363408,-4.526587
1204,2.44292,9.594448,-4.368516
1205,2.459685,9.678274,-3.877537
1206,2.265688,8.248447,-4.509822
1207,2.859653,10.219548,-3.951782
1208,2.062112,10.518926,-4.117039
1209,0.64426,10.229128,-3.949387
1210,-0.536484,9.754915,-3.779341
1211,-1.010698,9.129814,-3.135081
1212,-1.082549,8.895103,-2.723137
1213,-0.823887,9.268726,-2.41418
1214,-0.493374,9.510623,-2.5004
1215,-0.282612,10.003997,-2.114802
1216,-0.229922,10.162068,-2.256108
1217,-0.323328,10.147698,-2.035767
1218,-0.301772,9.927356,-2.277664
1219,-0.055085,9.877061,-2.646497
1220,0.543669,9.980046,-3.02012
1221,1.068179,10.142908,-3.11592
1222,1.662144,9.932146,-3.01533
1223,2.378254,9.798025,-3.187771
1224,3.123105,9.774075,-3.518284
1225,3.465593,10.011182,-4.34217
1226,3.154241,10.059082,-4.600833
1227,2.835703,10.712922,-4.282295
1228,2.620151,10.99793,-3.889512
1229,2.787803,11.488909,-3.118315
1230,2.766248,11.635005,-1.959126
1231,2.878813,11.766731,-0.843047
1232,3.156636,12.24813,-0.158071
1233,3.472778,13.962964,-0.299377
1234,3.496729,15.182029,-0.811912
1235,3.11592,15.529307,-1.314866
1236,2.019001,15.823894,-1.726809
1237,0.543669,15.455061,-0.383203
1238,-0.833467,14.106665,0.943638
1239,-1.458567,13.246853,1.477727
1240,-0.840652,12.798984,1.415457
1241,1.092129,12.540322,0.428708
1242,3.331472,12.29124,-1.695674
1243,4.425996,11.64698,-4.064348
1244,3.882327,10.942844,-6.418652
1245,2.371069,11.00272,-7.525151
1246,1.307681,12.058923,-7.30002
1247,1.005908,12.978611,-6.909631
1248,1.039438,13.591736,-6.301296
1249,0.723296,13.258828,-6.605464
1250,0.021555,12.748689,-6.468948
1251,-0.708926,12.382251,-5.755232
1252,-0.490979,12.674443,-6.035449
1253,-1.326841,12.078083,-4.155359
1254,-1.86093,10.842253,-4.387676
1255,-1.609453,10.265054,-4.837939
1256,-0.969983,9.618398,-4.87147
1257,-0.239502,8.823252,-4.988826
1258,0.397573,7.893984,-4.984036
1259,0.747246,6.871311,-4.833149
1260,0.941243,5.769602,-4.711003
1261,0.761616,4.794829,-4.562512
1262,0.402363,4.006868,-4.330195
1263,-0.02874,3.68833,-4.184099
1264,-0.435894,3.642825,-4.203259
1265,-0.701741,3.791316,-4.049978
1266,-0.680186,4.038003,-4.018843
1267,-0.481399,4.576882,-3.757786
1268,-0.146096,5.108577,-3.427273
1269,-0.050295,5.640271,-2.778223
1270,-0.074246,6.035449,-2.138752
1271,-0.277822,6.411467,-1.22146
1272,-0.65384,6.821016,-0.256267
1273,-1.195115,7.39103,0.807122
1274,-1.252595,8.243657,1.925596
1275,-0.66821,9.25675,2.402205
1276,0.126936,10.159673,2.562671
1277,0.689766,11.005115,2.732717
1278,1.420247,12.245735,3.839216
1279,2.191443,13.778547,5.451064
1280,2.49561,15.498171,6.852151
1281,2.071692,17.20582,7.422166
1282,0.972378,18.068027,5.048701
1283,-0.713716,17.502803,2.474055
1284,-1.705254,15.797549,1.733994
1285,-1.262175,13.632451,1.25499
1286,-1.025068,10.578801,0.790356
1287,-1.022673,7.549102,0.107776
1288,-0.704136,5.676196,-0.455054
1289,-0.270637,6.15999,-1.049019
1290,-1.027463,8.497529,-2.124382
1291,-1.683699,11.402688,-2.44771
1292,-1.053809,14.185701,-2.172283
1293,0.831072,15.021562,-1.281335
1294,1.717229,13.131892,-0.088616
1295,1.238225,10.277029,0.301772
1296,0.536484,7.565867,-1.607058
1297,-0.069456,5.716912,-4.167334
1298,0.0,5.436694,-5.230723
1299,0.864602,6.013894,-5.094207
1300,1.549578,6.492898,-5.094207
1301,1.602268,7.218589,-4.25116
1302,1.523232,8.514294,-3.04407
1303,1.666934,9.865085,-2.689607
1304,1.626218,11.038645,-2.416575
1305,1.566343,11.215876,-2.893184
1306,1.642983,10.964399,-2.943479
1307,1.700464,10.358459,-2.785408
1308,1.554368,9.742939,-2.488425
1309,1.080154,9.642349,-1.772314
1310,0.529299,9.050779,-2.126777
1311,0.512534,9.22801,-2.4046
1312,1.005908,9.917776,-2.668052
1313,1.726809,10.46384,-2.272874
1314,2.227368,10.576406,-2.138752
1315,2.689607,10.521321,-2.181863
1316,2.706372,10.157278,-2.44292
1317,2.533931,9.817185,-2.308799
1318,2.244133,9.934541,-2.081272
1319,1.669329,9.393267,-2.222578
1320,0.950823,8.701106,-2.962639
1321,0.488584,7.110813,-3.999683
1322,1.346001,8.566985,-4.675078
1323,1.475332,8.923843,-4.521797
1324,1.266965,8.861572,-4.555327
1325,1.271755,9.433982,-4.210444
1326,1.317261,9.575288,-3.597319
1327,1.506467,9.877061,-3.046465
1328,1.477727,10.013577,-2.883604
1329,1.243015,9.618398,-3.09197
1330,0.771196,9.395662,-3.204536
1331,0.225132,9.134604,-3.336262
1332,-0.404758,8.954978,-3.218906
1333,-0.958008,9.031619,-2.658472
1334,-1.082549,9.422007,-2.201023
1335,-0.57241,9.905801,-2.294429
1336,0.069456,10.171648,-2.430945
1337,0.878972,10.176438,-2.727927
1338,1.372346,10.056687,-3.216511
1339,1.607058,9.831555,-3.465593
1340,1.738784,9.723779,-3.62127
1341,1.942361,9.881851,-3.889512
1342,2.203418,10.008787,-4.366121
1343,2.263293,9.86269,-4.404441
1344,2.205813,10.118958,-4.406836
1345,2.042952,10.564431,-3.982917
1346,2.153123,11.247012,-3.247646
1347,2.368674,11.196716,-2.169888
1348,2.658472,10.741663,-1.729204
1349,3.11592,11.790681,-2.315984
1350,3.415298,13.273198,-2.945874
1351,2.953059,13.337864,-2.591411
1352,1.978286,13.709092,-2.711162
1353,0.799937,14.267131,-1.978286
1354,-0.296982,14.604829,-0.919687
1355,-0.950823,14.408438,0.335303
1356,-1.23104,13.663586,1.355581
1357,-0.850232,12.866045,1.353186
1358,-0.100591,12.123589,0.855022
1359,1.2023,11.795471,0.481399
1360,2.567461,11.68051,-0.541274
1361,3.511099,11.335627,-2.198628
1362,3.602109,10.973979,-4.133804
1363,2.713557,10.686577,-5.48699
1364,1.420247,10.835068,-5.934858
1365,0.409548,11.225457,-5.985154
1366,-0.088616,11.805051,-5.886958
1367,-0.277822,12.190649,-6.011499
1368,-0.510139,12.377461,-5.755232
1369,-0.684976,12.279265,-5.57321
1370,-0.296982,12.049343,-5.664221
1371,-0.102986,11.419453,-5.47262
1372,-0.016765,10.564431,-5.319338
1373,0.241897,9.807605,-5.47741
1374,0.490979,9.065149,-5.661826
1375,0.807122,8.519084,-5.702542
1376,0.998723,8.00655,-5.597161
1377,1.152004,7.431746,-5.460645
1378,1.123264,6.921606,-5.213958
1379,0.845442,6.207891,-5.106182
1380,0.342488,5.783972,-4.663103
1381,-0.184417,5.611531,-4.282295
1382,-0.687371,5.680986,-4.131409
1383,-1.118474,5.920488,-3.894302
1384,-1.307681,6.181545,-3.803291
1385,-1.310076,6.641389,-3.214116
1386,-1.163979,7.165898,-2.541116
1387,-1.063389,7.553892,-1.80345
1388,-1.219065,7.771838,-1.080154
1389,-1.475332,7.846084,-0.251477
1390,-1.456172,8.040081,0.325723
1391,-1.23583,8.262817,0.246687
1392,-0.847837,8.782537,0.320933
1393,-0.119751,9.321416,0.086221
1394,0.261057,9.889036,0.296982
1395,0.04311,10.212363,0.972378
1396,-0.368833,10.322534,1.468147
1397,-0.55804,10.645862,1.554368
1398,-0.246687,11.187136,1.17835
1399,0.273032,11.833792,1.20709
1400,0.759221,12.308005,0.917292
1401,0.974773,12.571458,0.66342
1402,1.013093,12.415781,0.213157
1403,1.180745,12.154724,0.069456
1404,1.128054,11.658955,-0.292192
1405,0.696951,10.782378,-0.045505
1406,0.354463,9.970466,-0.110171
1407,0.134121,9.110654,-0.874182
1408,-0.203577,8.229287,-1.343606
1409,-0.447869,7.295229,-1.918411
1410,-0.62989,6.435417,-2.725532
1411,-0.64426,6.109695,-3.427273
1412,-0.490979,6.320457,-3.68354
1413,-0.459844,7.455696,-3.633245
1414,-0.737666,9.572893,-2.991379
1415,-0.64905,12.485237,-2.201023
1416,0.091011,15.35926,-0.60115
1417,1.271755,17.493223,1.319656
1418,1.8274,18.39375,2.074087
1419,2.172283,17.332756,0.692161
1420,2.315984,14.180911,-0.56283
1421,2.550696,10.504556,-1.365161
1422,2.48603,7.726333,-1.707649
1423,1.420247,6.013894,-2.129172
1424,-0.354463,5.712122,-2.138752
1425,-1.844165,6.912026,-1.801055
1426,-2.464475,8.823252,-1.528022
1427,-2.121987,10.341694,-1.750759
1428,-0.900527,10.990745,-2.47166
1429,0.328118,10.741663,-3.08718
1430,1.575923,10.044712,-3.848796
1431,2.416575,9.637559,-4.121829
1432,2.864443,9.383687,-4.045188
1433,2.943479,9.340576,-3.525469
1434,3.046465,9.788445,-2.984194
1435,3.075205,9.992021,-2.869233
1436,3.000959,9.996812,-2.914739
1437,2.900369,9.968071,-2.883604
1438,2.687212,9.769285,-2.885999
1439,2.347119,9.505833,-2.950664
1440,1.923201,9.366921,-3.02491
1441,1.310076,9.412427,-3.008145
1442,0.783171,9.575288,-2.624941
1443,0.402363,9.520203,-2.878813
1444,0.234712,9.496252,-3.147056
1445,0.368833,9.398057,-3.556604
1446,0.627495,9.366921,-3.808081
1447,0.962798,9.2328,-3.975732
1448,1.21667,9.18011,-4.021238
1449,1.238225,9.239985,-4.011658
1450,1.123264,9.304651,-3.946992
1451,1.005908,9.438772,-3.73623
1452,0.989143,9.491462,-3.623665
1453,0.958008,9.608818,-3.484753
1454,1.065784,9.699829,-3.242856
1455,1.199905,9.896221,-2.988984
1456,1.413062,9.946516,-2.948269
1457,1.578318,10.011182,-3.099155
1458,1.609453,10.011182,-3.149451
1459,1.719624,10.018367,-3.036885
1460,1.700464,9.946516,-2.866838
1461,1.666934,9.850715,-2.957849
1462,1.516047,9.663904,-3.02491
1463,1.322051,9.491462,-3.185376
1464,1.063389,9.297466,-3.417693
1465,0.728086,9.108259,-3.824846
1466,0.292192,8.916658,-4.375701
1467,-0.021555,8.854387,-4.627178
1468,-0.098196,8.720266,-4.387676
1469,0.01916,8.811277,-4.464316
1470,0.208367,9.062754,-4.509822
1471,0.304167,9.414822,-4.557722
1472,0.421523,9.798025,-4.361331
1473,0.5772,10.135723,-4.253555
1474,0.931663,10.003997,-4.157754
1475,1.238225,9.632769,-4.210444
1476,1.367556,9.369316,-4.404441
1477,1.23104,9.268726,-4.548142
1478,1.003513,9.455537,-4.466711
1479,0.740061,9.481882,-4.26074
1480,0.59636,9.491462,-4.148174
1481,0.416733,9.390872,-4.066743
1482,0.371228,9.374106,-3.975732
1483,0.349673,9.503438,-3.796106
1484,0.328118,9.632769,-3.6548
1485,0.337698,9.709409,-3.62606
1486,0.354463,9.740544,-3.558999
1487,0.318538,9.690249,-3.424878
1488,0.201182,9.498647,-3.544629
