frame,acc x,acc y,acc z
1448,-0.869392,10.399175,-1.204695
1449,-0.893342,10.538086,-1.101709
1450,-0.991538,10.602751,-0.943638
1451,-0.996328,10.669812,-0.723296
1452,-0.974773,10.823093,-0.488584
1453,-0.862207,10.964399,-0.385598
1454,-0.807122,11.134446,-0.059875
1455,-0.706531,11.340417,0.114961
1456,-0.495769,11.555969,0.184417
1457,-0.404758,11.484119,0.198787
1458,-0.512534,11.373948,0.076641
1459,-0.922083,11.309282,-0.076641
1460,-1.310076,11.405083,-0.234712
1461,-1.477727,11.385923,-0.071851
1462,-1.690884,11.335627,0.00958
1463,-1.980681,11.201506,0.277822
1464,-2.212998,11.120076,0.287402
1465,-2.368674,11.067385,0.292192
1466,-2.581831,10.909314,0.483794
1467,-2.550696,10.803933,0.378413
1468,-2.531536,10.588381,0.311353
1469,-2.344724,10.485396,0.186812
1470,-2.088457,10.303374,0.129331
1471,-1.750759,10.102192,0.00479
1472,-1.539998,10.015972,-0.182021
1473,-1.377136,9.872271,-0.368833
1474,-1.156794,9.659114,-0.603545
1475,-1.029858,9.422007,-0.699346
1476,-0.972378,9.285491,-0.811912
1477,-1.037043,9.137,-0.627495
1478,-1.125659,9.117839,-0.522114
1479,-1.324446,9.108259,-0.380808
1480,-1.631008,9.069939,-0.354463
1481,-2.071692,9.117839,-0.071851
1482,-2.121987,8.988508,-0.007185
1483,-2.177073,9.012458,0.232317
1484,-2.411785,8.983718,0.60115
1485,-2.45729,8.916658,0.862207
1486,-2.212998,8.851992,1.065784
1487,-2.469265,8.875942,1.252595
1488,-2.610571,8.849597,1.305286
1489,-2.560276,9.012458,1.501677
1490,-2.450105,9.395662,1.494492
1491,-2.220183,9.524993,1.537603
1492,-1.959126,9.611213,1.607058
1493,-1.650168,9.498647,1.662144
1494,-1.27894,9.498647,1.602268
1495,-1.18314,9.263936,1.592688
1496,-1.135239,9.249565,1.520837
1497,-1.195115,9.386082,1.722019
1498,-1.2023,9.371711,1.896855
1499,-1.338816,9.381292,1.916016
1500,-1.650168,9.287886,2.030977
1501,-1.662144,9.321416,2.275269
1502,-1.669329,9.125024,2.323169
1503,-1.760339,9.110654,2.538721
1504,-1.83698,9.25675,2.545906
1505,-1.805845,9.216035,2.356699
1506,-1.647773,9.192085,2.574646
1507,-1.465752,9.19927,2.639312
1508,-1.295706,9.297466,2.687212
1509,-1.16877,9.553733,2.756667
1510,-1.075364,9.905801,2.675237
1511,-1.044229,10.037527,2.593806
1512,-1.135239,10.018367,2.483635
1513,-1.219065,9.951306,2.562671
1514,-1.25499,9.730964,2.641707
1515,-1.19751,9.580078,2.498005
1516,-1.128054,9.345366,2.586621
1517,-1.132844,9.254355,2.692002
1518,-1.072969,9.139395,2.668052
1519,-1.130449,9.24717,2.565066
1520,-1.257385,9.625583,2.644102
1521,-1.575923,9.960886,2.397415
1522,-1.920806,10.250684,2.117197
1523,-2.102827,10.324929,1.719624
1524,-2.203418,10.595566,1.437012
1525,-2.318379,11.04583,0.881367
1526,-2.44771,11.385923,0.632285
1527,-2.560276,11.934382,1.072969
1528,-2.811753,12.331956,2.035767
1529,-3.130291,12.130774,2.742297
1530,-3.312312,11.258987,2.914739
1531,-3.123105,10.159673,2.572251
1532,-2.612966,9.14658,2.054927
1533,-1.801055,8.566985,1.362766
1534,-1.025068,8.305928,0.565225
1535,-0.57241,8.576565,0.086221
1536,-0.447869,9.15137,-0.122146
1537,-0.505349,10.011182,0.467029
1538,-0.122146,10.597961,1.051414
1539,0.328118,10.581196,1.034648
1540,0.617915,10.245894,0.352068
1541,0.723296,9.754915,-0.114961
1542,0.869392,9.479487,-0.011975
1543,0.979563,9.292676,-0.026345
1544,1.020278,9.089099,-0.340093
1545,1.029858,8.988508,-0.960403
1546,1.149609,9.048384,-1.219065
1547,1.322051,9.290281,-1.25978
1548,1.480122,9.632769,-1.17356
1549,1.480122,9.850715,-0.780776
1550,1.463357,10.020762,-0.536484
1551,1.427432,10.061477,-0.364043
1552,1.465752,9.994417,-0.330513
1553,1.322051,9.934541,-0.294587
1554,1.137634,9.798025,-0.332908
1555,0.845442,9.77647,-0.158071
1556,0.603545,9.932146,0.035925
1557,0.380808,10.066267,0.186812
1558,0.380808,10.066267,0.186812
1559,0.270637,10.075847,-0.076641
1560,0.498164,9.960886,-0.637075
1561,0.929268,9.740544,-1.640588
1562,1.075364,9.668694,-1.666934
1563,1.487307,9.910591,-1.623823
1564,1.786685,9.970466,-1.690884
1565,2.030977,10.032737,-1.745969
1566,2.155518,9.975256,-1.839375
1567,2.160308,9.77168,-2.210603
1568,2.124382,9.584868,-2.574646
1569,1.892065,9.517808,-2.706372
1570,1.458567,9.486672,-2.754272
1571,1.072969,9.508228,-2.663262
1572,0.864602,9.596843,-2.339934
1573,0.61073,9.558523,-2.153123
1574,0.325723,9.539363,-1.923201
1575,0.359253,9.675879,-1.556763
1576,0.500559,9.891431,-1.377136
1577,0.411943,10.078242,-1.111289
1578,0.699346,10.432705,-0.905317
1579,0.622705,10.696157,-0.859812
1580,0.316143,10.593171,-0.617915
1581,0.165256,10.353669,-0.783171
1582,0.091011,9.989626,-1.494492
1583,0.222737,9.721384,-1.892065
1584,0.273032,9.740544,-2.100432
1585,0.385598,9.83395,-1.975891
1586,0.696951,10.027947,-1.757944
1587,0.910107,9.960886,-1.573528
1588,1.099314,10.011182,-1.542393
1589,1.166375,10.059082,-1.750759
1590,1.056204,10.427915,-2.241738
1591,0.63468,10.825488,-2.847678
1592,0.500559,11.223062,-3.0297
1593,0.790356,11.218271,-3.185376
1594,1.072969,10.954819,-3.1255
1595,1.015488,11.014695,-2.821333
1596,0.898132,11.172766,-2.181863
1597,0.919687,11.536809,-1.444197
1598,1.20709,11.517649,-0.661025
1599,1.520837,11.606265,-0.376018
1600,1.995051,12.739109,-0.105381
1601,2.493215,14.238391,-0.112566
1602,2.567461,14.770085,-0.917292
1603,2.016606,14.192886,-2.186653
1604,1.417852,13.567786,-2.406995
1605,0.989143,13.46001,-1.717229
1606,0.546064,13.733042,-0.495769
1607,0.158071,13.756992,0.60594
1608,-0.179626,13.349839,1.384321
1609,-0.802332,12.324771,1.499282
1610,-1.401086,11.421848,1.156794
1611,-1.755549,11.05062,0.900527
1612,-1.314866,11.251802,0.929268
1613,-0.488584,11.625425,0.61073
1614,0.61552,12.006233,-0.613125
1615,1.585503,12.039763,-2.150728
1616,1.611848,11.874507,-3.331472
1617,1.496887,11.414663,-4.600833
1618,0.984353,10.916499,-4.679868
1619,0.241897,10.545271,-4.097878
1620,-0.416733,10.583591,-3.353027
1621,0.306563,10.547666,-4.131409
1622,0.304167,10.693762,-2.874023
1623,0.203577,10.763218,-2.835703
1624,-0.064666,10.700947,-3.221301
1625,-0.098196,10.557246,-3.06802
1626,0.021555,10.497371,-2.48603
1627,0.02874,10.37762,-2.023792
1628,0.129331,10.147698,-1.892065
1629,0.155676,9.7621,-1.949546
1630,0.05748,9.043594,-2.014211
1631,-0.182021,8.327483,-1.942361
1632,-0.383203,7.592212,-1.995051
1633,-0.598755,6.650969,-2.059717
1634,-0.773591,5.982759,-1.81782
1635,-0.946033,5.546865,-1.664539
1636,-0.948428,5.364844,-1.300496
1637,-0.938848,5.45825,-0.902922
1638,-0.62989,5.719307,-0.462239
1639,-0.256267,6.090535,-0.198787
1640,-0.021555,6.617439,0.064666
1641,-0.074246,7.146738,0.443079
1642,-0.136516,7.388635,0.876577
1643,-0.479004,7.407795,1.300496
1644,-0.895737,7.505991,1.571133
1645,-0.922083,7.561077,1.602268
1646,-0.958008,7.723938,1.293311
1647,-0.737666,8.068821,1.319656
1648,-0.409548,8.478369,1.671724
1649,-0.064666,9.050779,2.620151
1650,0.201182,9.936936,3.602109
1651,0.392783,11.148816,4.605623
1652,0.411943,12.842095,5.891748
1653,0.526904,14.983242,7.489226
1654,0.074246,16.935183,8.090376
1655,-1.144819,17.392632,6.75635
1656,-2.811753,16.235837,5.166057
1657,-3.441643,13.452825,4.493057
1658,-3.384163,10.324929,3.978127
1659,-3.07281,7.611372,3.197351
1660,-2.859653,6.090535,2.342329
1661,-2.375859,6.926396,1.597478
1662,-2.459685,10.044712,0.476609
1663,-2.670447,13.828843,0.560435
1664,-1.401086,16.535215,0.790356
1665,-0.05748,16.118481,0.287402
1666,0.361648,13.057646,-1.065784
1667,0.65863,9.769285,-1.307681
1668,1.631008,6.80425,-2.598596
1669,2.747087,4.545747,-5.168452
1670,2.965034,3.398533,-6.809041
1671,1.738784,3.755391,-5.422324
1672,0.878972,6.387517,-2.572251
1673,1.089734,9.735754,-0.186812
1674,1.8753,11.872112,0.098196
1675,2.39981,12.480447,-0.62031
1676,2.600991,11.69967,-0.955613
1677,2.165098,10.492581,-0.584385
1678,1.83219,9.663904,-0.198787
1679,1.523232,9.15616,0.059875
1680,1.257385,9.098679,0.268242
1681,1.001118,9.019644,0.59636
1682,1.702859,9.108259,-0.071851
1683,2.406995,9.462722,-0.787961
1684,2.260898,9.934541,-0.469424
1685,1.83698,9.901011,-0.311353
1686,1.159189,9.637559,-0.656235
1687,0.969983,9.086704,-0.953218
1688,1.072969,8.679551,-1.257385
1689,1.025068,8.665181,-1.525627
1690,1.099314,8.909473,-1.683699
1691,1.022673,9.568103,-1.736389
1692,1.159189,9.86269,-1.978286
1693,1.128054,9.338181,-2.809358
1694,1.329236,9.005273,-3.415298
1695,1.437012,9.22322,-3.345842
1696,0.969983,9.941726,-2.325564
1697,0.692161,10.700947,-0.799937
1698,0.859812,10.779983,-0.141306
1699,0.826282,9.927356,-0.318538
1700,0.349673,9.505833,-0.680186
1701,-0.251477,9.563313,-1.077759
1702,-0.689766,9.944121,-1.487307
1703,-0.744851,10.37283,-2.483635
1704,-0.328118,10.717712,-2.40939
1705,0.179626,11.191926,-1.796265
1706,0.447869,11.522439,-1.398691
1707,0.742456,11.376343,-1.18314
1708,0.965193,11.194321,-1.585503
1709,1.142424,11.141631,-1.939966
1710,1.484912,11.369158,-2.112407
1711,1.85135,11.754756,-2.184258
1712,2.028582,11.915222,-2.4525
1713,1.961521,11.70925,-2.804568
1714,1.702859,11.534414,-2.529141
1715,1.628613,11.510464,-1.911226
1716,1.619033,11.920012,-0.570015
1717,1.628613,11.852952,0.498164
1718,1.944756,11.857742,1.252595
1719,2.445315,12.640913,1.432222
1720,2.967429,14.961687,1.293311
1721,3.393743,15.634688,0.919687
1722,2.857258,14.140195,-0.359253
1723,1.892065,13.050461,-0.486189
1724,1.092129,12.497212,0.035925
1725,0.447869,12.140354,0.732876
1726,0.04311,12.30082,1.372346
1727,0.110171,12.597803,1.029858
1728,0.344883,12.657678,0.56762
1729,0.943638,12.535532,-0.234712
1730,1.334026,12.030183,-1.070574
1731,1.214275,11.620635,-1.731599
1732,0.967588,11.436218,-2.766248
1733,0.261057,11.330837,-3.199746
1734,-0.035925,11.323652,-3.475173
1735,-0.59157,11.03146,-2.632126
1736,-1.638193,11.70925,-1.975891
1737,-1.005908,11.601475,-3.899092
1738,-1.101709,12.037368,-2.636917
1739,-0.950823,12.164304,-2.706372
1740,-0.107776,12.216995,-2.768643
1741,0.768801,11.955938,-3.113525
1742,1.22146,11.366763,-3.456013
1743,1.341211,10.540481,-3.477568
1744,1.18314,9.675879,-3.10155
1745,1.099314,8.63644,-2.797383
1746,0.917292,7.632927,-2.46208
1747,0.543669,6.665339,-2.292034
1748,0.308958,5.877378,-2.459685
1749,0.141306,5.333708,-2.715952
1750,-0.03353,5.070256,-2.799778
1751,-0.134121,5.010381,-2.632126
1752,-0.189207,5.233118,-2.153123
1753,-0.198787,5.556445,-1.530417
1754,-0.167651,5.932463,-1.037043
1755,-0.138911,6.380332,-0.435894
1756,-0.237107,6.70845,0.261057
1757,-0.593965,7.079678,0.718506
1758,-1.039438,7.247329,0.962798
1759,-1.379531,7.40061,1.144819
1760,-1.585503,7.599397,1.365161
1761,-1.82261,7.903564,1.451382
1762,-1.583108,8.296348,1.621428
1763,-1.108894,8.866362,2.102827
1764,-0.706531,9.445957,2.553091
1765,-0.263452,10.171648,3.151846
1766,0.093406,11.333232,4.411626
1767,0.62031,13.49354,6.797065
1768,1.393901,16.535215,9.290281
1769,0.814307,18.561401,8.557405
1770,-2.014211,18.580562,5.56363
1771,-3.69312,16.501685,5.173242
1772,-3.01054,12.384646,4.88105
1773,-2.308799,9.314231,4.179309
1774,-1.973496,7.369475,2.375859
1775,-1.487307,7.036567,0.136516
1776,-1.355581,8.638835,-1.858535
1777,-1.369951,10.926079,-2.514771
1778,-1.195115,12.997771,-1.432222
1779,-0.560435,13.191768,-0.011975
1780,-0.071851,11.105706,-0.189207
1781,0.198787,9.041199,-0.04311
1782,0.378413,7.625742,-1.293311
1783,0.929268,7.132368,-2.977009
1784,1.559158,7.220984,-3.582949
1785,1.731599,7.522756,-3.300337
1786,1.360371,8.140671,-2.644102
1787,1.111289,9.091494,-1.707649
1788,1.130449,9.774075,-1.063389
1789,1.542393,9.980046,-1.051414
1790,2.184258,9.910591,-1.393901
1791,2.318379,9.644744,-1.293311
1792,1.985471,9.498647,-0.905317
1793,1.077759,9.541758,-0.368833
1794,0.344883,9.465117,0.131726
1795,0.205972,9.362131,-0.184417
1796,0.443079,9.417217,-0.208367
1797,1.24541,9.702224,-0.225132
1798,1.726809,10.255474,0.02395
1799,2.402205,10.442285,-0.311353
1800,2.785408,10.46384,-0.907712
1801,2.763853,10.245894,-1.583108
1802,2.517166,9.685459,-1.983076
1803,2.105222,9.182505,-2.380649
1804,1.571133,8.710686,-2.555486
1805,1.372346,8.646021,-3.302732
1806,1.393901,8.993298,-3.776946
1807,1.417852,9.599238,-3.611689
1808,1.647773,10.39678,-2.785408
1809,1.904041,10.801538,-1.678909
1810,2.014211,10.928474,-0.929268
1811,1.810635,10.547666,-0.538879
1812,1.302891,10.104587,-0.790356
1813,0.675396,9.817185,-1.290916
1814,0.040715,9.707014,-1.654958
1815,-0.273032,9.498647,-1.906436
1816,-0.476609,9.522598,-2.078877
1817,-0.347278,9.541758,-2.040557
1818,-0.306563,9.616003,-1.616638
1819,-0.241897,9.8579,-1.324446
1820,-0.129331,10.073452,-1.441802
1821,0.02395,10.262659,-1.439407
1822,0.076641,10.432705,-1.128054
1823,0.332908,10.564431,-1.063389
1824,0.888552,10.554851,-1.24062
1825,1.542393,10.432705,-1.654958
1826,2.019001,10.265054,-2.217788
1827,2.215393,10.243499,-2.567461
1828,2.342329,10.483,-2.826123
1829,2.49082,10.868599,-2.629731
1830,2.368674,10.844648,-2.589016
1831,1.987866,10.930869,-2.162703
1832,1.628613,11.268567,-0.689766
1833,1.602268,11.630215,0.65863
1834,1.815425,11.912827,1.647773
1835,2.224973,12.27208,2.157913
1836,3.03449,14.310242,1.829795
1837,3.743416,16.029866,1.092129
1838,3.281177,15.857424,-0.397573
1839,1.923201,14.894626,-1.001118
1840,0.701741,14.125825,-0.61552
1841,-0.249082,13.711487,0.229922
1842,-0.958008,13.630056,1.001118
1843,-1.17835,13.457615,1.27894
1844,-0.402363,13.510305,1.161584
1845,0.840652,13.419294,0.490979
1846,1.769919,13.007351,-0.483794
1847,2.126777,12.712764,-1.87051
1848,1.959126,12.425361,-3.266807
1849,1.156794,12.446917,-3.733835
1850,0.56283,12.169094,-3.879932
1851,-0.165256,11.922407,-3.051255
1852,-1.324446,12.470867,-2.577041
1853,-0.771196,12.161909,-4.277505
1854,-0.665815,12.396621,-2.790198
1855,-0.450264,12.207415,-2.629731
1856,0.222737,11.910432,-2.943479
1857,0.938848,11.397898,-2.960244
1858,1.28373,10.46384,-3.06323
1859,1.348396,9.563313,-2.864443
1860,1.156794,8.61728,-2.591411
1861,1.034648,7.764653,-2.229763
1862,0.802332,6.995852,-2.100432
1863,0.538879,6.267766,-2.136357
1864,0.258662,5.53489,-2.46208
1865,0.110171,4.95769,-2.701582
1866,0.170046,4.517007,-3.10634
1867,0.160466,4.459526,-3.266807
1868,0.246687,4.584067,-3.137476
1869,0.280217,4.883445,-2.715952
1870,0.344883,5.345684,-2.330354
1871,0.443079,5.781577,-1.631008
1872,0.385598,6.298901,-0.66342
1873,0.136516,6.864126,0.079036
1874,-0.361648,7.290439,0.759221
1875,-0.924478,7.733518,1.614243
1876,-1.369951,8.238867,2.4525
1877,-1.729204,8.878337,3.079995
1878,-1.959126,9.299861,3.556604
1879,-1.786685,9.510623,3.951782
1880,-1.329236,9.582473,3.66438
1881,-0.869392,9.85311,3.206931
1882,-0.222737,10.605146,3.312312
1883,0.177231,11.970308,4.490662
1884,0.390388,14.190491,6.318062
1885,0.095801,16.425044,6.74198
1886,-0.969983,17.315991,4.998406
1887,-2.208208,16.49929,3.489543
1888,-2.450105,14.360537,3.575764
1889,-2.42855,11.381133,3.73144
1890,-2.258503,8.938213,3.293152
1891,-2.253713,7.443721,2.359094
1892,-1.805845,7.482041,1.561553
1893,-2.172283,9.115444,-0.435894
1894,-3.182981,11.462563,-0.890947
1895,-3.295547,13.771362,0.237107
1896,-2.416575,14.602434,1.911226
1897,-1.219065,13.067227,1.820215
1898,-0.380808,11.400293,1.597478
1899,0.708926,10.45905,1.360371
1900,2.323169,9.091494,-0.433499
1901,3.657195,7.805369,-2.150728
1902,4.124224,6.768325,-3.326682
1903,3.515889,6.11688,-3.836821
1904,2.344724,6.353987,-3.855981
1905,1.305286,7.448511,-2.941084
1906,1.025068,8.787327,-1.88009
1907,1.233435,9.915381,-1.28373
1908,1.413062,10.552456,-1.101709
1909,1.499282,10.612332,-0.603545
1910,1.334026,10.356064,-0.208367
1911,0.955613,9.968071,-0.138911
1912,0.57241,9.639954,-0.00479
1913,0.098196,9.599238,0.347278
1914,0.117356,9.716594,0.481399
1915,0.124541,10.073452,0.55325
1916,0.502954,10.109377,0.344883
1917,1.034648,10.312954,0.0479
1918,1.508862,10.40157,-0.294587
1919,1.904041,10.638677,-0.548459
1920,2.112407,10.530901,-0.555645
1921,2.260898,10.066267,-1.096919
1922,2.287244,9.407637,-1.825005
1923,2.193838,8.667576,-2.670447
1924,2.117197,8.332273,-3.432063
1925,2.014211,8.361013,-3.889512
1926,1.872905,8.840017,-3.803291
1927,1.89446,9.539363,-3.187771
1928,1.959126,10.075847,-2.42855
1929,2.014211,10.344089,-1.707649
1930,1.85614,10.260264,-1.22625
1931,1.346001,9.83874,-1.101709
1932,0.831072,9.477092,-1.18793
1933,0.210762,9.381292,-1.19751
1934,-0.189207,9.381292,-1.307681
1935,-0.320933,9.594448,-1.458567
1936,-0.378413,9.953701,-1.25499
1937,-0.308958,10.344089,-0.869392
1938,-0.222737,10.466235,-0.65863
1939,0.100591,10.329719,-1.243015
1940,0.390388,10.169253,-1.997446
1941,0.708926,10.214758,-2.105222
1942,0.996328,10.588381,-1.698069
1943,1.130449,10.863809,-1.427432
1944,1.381926,10.708132,-1.571133
1945,1.638193,10.38241,-1.707649
1946,1.686094,10.298584,-1.602268
1947,1.743574,10.720107,-1.477727
1948,1.741179,11.333232,-1.743574
1949,1.635798,11.445798,-2.165098
1950,1.389111,11.165581,-2.030977
1951,1.341211,11.03146,-1.123264
1952,1.702859,10.878179,0.055085
1953,2.244133,12.090059,0.282612
1954,2.478845,13.977334,0.711321
1955,2.682422,14.597644,0.320933
1956,1.966311,13.812078,-0.737666
1957,1.025068,12.985796,-1.21667
1958,0.385598,12.810959,-0.684976
1959,-0.153281,13.292358,0.02874
1960,-0.802332,13.644426,0.864602
1961,-1.413062,13.301938,0.548459
1962,-1.983076,12.28645,0.117356
1963,-1.654958,11.802656,-0.328118
1964,-1.049019,11.565549,-0.237107
1965,0.122146,11.848162,-0.443079
1966,1.2023,12.128379,-0.807122
1967,1.410667,12.085269,-1.204695
1968,1.453777,11.898457,-2.181863
1969,0.637075,11.560759,-2.514771
1970,-0.277822,11.258987,-2.933899
1971,-0.5772,11.242222,-3.544629
1972,-0.708926,11.019485,-3.604504
1973,-0.696951,11.129656,-2.960244
1974,-0.505349,11.167976,-3.11113
1975,-0.0479,11.115286,-3.204536
1976,0.637075,10.844648,-3.321892
1977,1.084944,10.523716,-3.511099
1978,1.346001,10.090217,-3.752996
1979,1.365161,9.433982,-3.71707
1980,1.336421,8.780142,-3.566184
1981,1.25978,8.171807,-3.302732
1982,1.032253,7.580237,-2.929109
1983,0.732876,6.983877,-2.802173
1984,0.404758,6.502478,-2.768643
1985,0.222737,6.363567,-2.780618
1986,0.229922,6.394702,-2.737507
1987,0.148491,6.545588,-2.284849
1988,-0.02874,6.787485,-1.748364
1989,-0.493374,7.216194,-1.053809
1990,-0.687371,7.676038,-0.55325
1991,-0.637075,8.325088,-0.03832
1992,-0.59157,8.947793,0.661025
1993,-0.768801,9.477092,1.159189
1994,-0.991538,9.86269,1.561553
1995,-1.132844,9.934541,1.662144
1996,-1.22146,9.716594,1.463357
1997,-1.437012,9.292676,0.981958
1998,-1.386716,8.983718,0.364043
1999,-1.238225,8.813672,0.105381
2000,-1.111289,8.703501,0.177231
2001,-0.874182,8.696316,0.687371
2002,-1.21667,9.055569,2.038162
2003,-1.23583,9.570498,2.950664
2004,-0.950823,10.152488,3.482358
2005,-0.589175,11.08894,3.796106
2006,-0.428708,11.984678,3.729045
2007,-0.407153,12.681628,2.943479
2008,-0.579595,12.794194,2.639312
2009,-0.507744,12.494817,2.524351
2010,-0.589175,11.850557,2.646497
2011,-1.041833,11.208691,2.531536
2012,-1.408271,10.494976,1.978286
2013,-1.669329,9.659114,1.322051
2014,-1.887275,8.856782,0.637075
2015,-1.872905,8.217312,-0.131726
2016,-1.492097,7.874824,-0.64905
2017,-1.346001,7.889194,-0.843047
2018,-1.477727,8.495134,-0.984353
2019,-1.338816,9.544153,-2.009421
2020,-1.008303,10.791958,-1.621428
2021,-0.277822,12.130774,-0.05748
2022,0.445474,13.254038,1.650168
2023,0.828677,14.087505,2.43813
2024,0.723296,15.045513,2.119592
2025,0.366438,15.411951,2.248923
2026,0.134121,14.130615,2.342329
2027,-0.311353,11.829001,1.939966
2028,-0.476609,9.683064,0.764011
2029,-1.010698,7.838899,-1.037043
2030,-1.480122,6.828201,-1.935176
2031,-1.683699,6.531218,-2.098037
2032,-1.506467,7.070098,-1.678909
2033,-0.742456,8.052056,-0.967588
2034,0.316143,9.101074,-0.574805
2035,1.369951,9.948911,-0.58678
2036,2.277664,10.3872,-0.756826
2037,2.811753,10.497371,-1.257385
2038,3.084785,10.279424,-1.820215
2039,3.118315,9.999207,-1.89925
2040,2.931504,9.735754,-1.904041
2041,2.644102,9.577683,-1.937571
2042,2.373464,9.606423,-1.88009
2043,2.076482,9.8579,-1.83219
2044,1.801055,10.166858,-1.683699
2045,1.638193,10.413545,-1.410667
2046,1.456172,10.528506,-0.972378
2047,1.22625,10.626702,-0.62989
2048,0.989143,10.629097,-0.201182
2049,0.811912,10.511741,-0.107776
2050,0.768801,10.4351,-0.443079
2051,0.689766,10.375225,-0.900527
2052,0.61073,10.233918,-1.336421
2053,0.368833,9.963281,-1.777104
2054,0.373623,9.570498,-2.165098
2055,0.548459,9.280701,-2.43334
2056,0.831072,9.148975,-2.737507
2057,1.094524,9.081914,-2.924319
2058,1.403481,9.201665,-2.924319
2059,1.609453,9.465117,-2.754272
2060,1.81303,9.81958,-2.474055
2061,1.896855,10.109377,-2.227368
2062,1.997446,10.279424,-2.035767
2063,2.033372,10.399175,-1.767524
2064,1.944756,10.336904,-1.733994
2065,1.686094,10.353669,-1.578318
2066,1.307681,10.341694,-1.681304
2067,0.850232,10.284214,-1.645378
2068,0.378413,10.145303,-1.566343
2069,-0.050295,10.166858,-1.23104
2070,-0.141306,10.281819,-0.799937
2071,-0.095801,10.511741,-0.292192
2072,0.174836,10.676997,-0.220342
2073,0.522114,10.554851,-0.414338
2074,0.699346,10.37762,-0.708926
2075,0.768801,10.171648,-1.144819
2076,0.754431,10.066267,-1.439407
2077,0.799937,9.975256,-1.666934
2078,0.771196,9.972861,-1.753154
2079,0.799937,10.025552,-1.86093
2080,0.866997,10.027947,-1.8753
2081,0.936453,10.090217,-1.908831
2082,0.926873,10.231523,-1.88009
2083,0.876577,10.550061,-1.877695
2084,0.890947,10.708132,-1.79387
2085,0.855022,10.753638,-1.676514
2086,0.775986,10.746453,-1.662144
2087,0.680186,10.660232,-1.477727
2088,0.732876,10.499766,-1.317261
2089,0.728086,10.533296,-1.331631
2090,0.850232,10.890154,-1.520837
2091,0.845442,11.141631,-1.815425
2092,0.835862,11.239827,-2.074087
2093,0.560435,11.199111,-2.390229
2094,0.301772,11.096125,-2.47166
2095,0.227527,10.952424,-2.42376
2096,-0.0479,10.770403,-1.85135
2097,0.007185,10.621912,-1.480122
2098,-0.112566,10.655442,-0.845442
2099,-0.064666,10.672207,-0.548459
2100,-0.086221,10.729688,-0.215552
2101,-0.457449,10.904524,0.486189
