frame,acc x,acc y,acc z
1023,-0.435894,10.106982,-0.696951
1024,-0.546064,10.126143,-0.826282
1025,-0.61073,10.128538,-0.730481
1026,-0.725691,10.092612,-0.675396
1027,-0.771196,10.073452,-0.584385
1028,-0.799937,10.037527,-0.550854
1029,-0.737666,9.982441,-0.428708
1030,-0.716111,10.056687,-0.277822
1031,-0.64905,10.126143,-0.316143
1032,-0.574805,10.142908,-0.318538
1033,-0.622705,10.157278,-0.387993
1034,-0.550854,10.035132,-0.476609
1035,-0.546064,9.903406,-0.589175
1036,-0.469424,9.83874,-0.696951
1037,-0.462239,9.740544,-0.65863
1038,-0.385598,9.745334,-0.529299
1039,-0.287402,9.80521,-0.457449
1040,-0.241897,9.934541,-0.747246
1041,-0.227527,9.960886,-0.857417
1042,-0.138911,9.86269,-0.953218
1043,0.007185,9.687854,-1.142424
1044,0.095801,9.709409,-1.166375
1045,0.150886,9.886641,-1.025068
1046,0.198787,9.977651,-1.051414
1047,0.335303,9.980046,-1.001118
1048,0.517324,9.980046,-0.651445
1049,0.677791,9.83395,-0.349673
1050,0.699346,9.802815,-0.079036
1051,0.646655,9.81479,-0.131726
1052,0.579595,10.020762,-0.275427
1053,0.546064,10.274634,-0.452659
1054,0.560435,10.42073,-0.450264
1055,0.59157,10.281819,-0.538879
1056,0.696951,10.003997,-0.469424
1057,0.828677,9.956096,-0.265847
1058,0.874182,10.059082,-0.150886
1059,0.881367,10.238708,-0.122146
1060,0.809517,10.255474,-0.153281
1061,0.675396,10.186018,-0.203577
1062,0.519719,10.008787,-0.287402
1063,0.229922,9.716594,-0.517324
1064,-0.064666,9.410032,-0.641865
1065,-0.268242,9.25196,-0.60115
1066,-0.335303,9.2328,-0.512534
1067,-0.287402,9.369316,-0.58199
1068,-0.352068,9.656719,-0.759221
1069,-0.268242,10.111772,-0.917292
1070,-0.035925,10.351274,-0.905317
1071,0.138911,10.324929,-1.101709
1072,0.055085,10.284214,-1.353186
1073,-0.213157,10.147698,-1.439407
1074,-0.488584,10.159673,-1.374741
1075,-0.675396,10.118958,-1.060994
1076,-0.821492,9.996812,-0.943638
1077,-1.113684,9.654324,-0.917292
1078,-1.310076,9.417217,-0.941243
1079,-1.286125,9.278306,-0.946033
1080,-0.905317,8.823252,-1.037043
1081,-0.950823,9.83395,-0.64905
1082,-1.084944,11.464958,-1.748364
1083,-1.106499,11.749966,-1.640588
1084,-0.816702,11.357183,-0.364043
1085,0.138911,11.235037,-0.00479
1086,0.699346,11.05541,-0.174836
1087,0.687371,10.945239,-0.519719
1088,0.63947,11.294912,-0.174836
1089,0.787961,11.951147,0.208367
1090,0.795146,12.24334,0.213157
1091,0.893342,12.22418,0.378413
1092,1.140029,11.972703,0.708926
1093,1.470542,11.833792,0.826282
1094,1.599873,11.984678,0.819097
1095,1.317261,12.159514,0.931663
1096,0.696951,12.389436,1.298101
1097,0.299377,12.837305,1.748364
1098,0.773591,15.541282,2.064507
1099,0.773591,15.541282,2.064507
1100,2.011816,18.537451,2.603386
1101,1.17356,15.991545,1.367556
1102,-0.174836,13.893508,1.472937
1103,-0.397573,12.813354,3.374583
1104,0.182021,12.25292,4.92895
1105,0.63947,12.173884,4.744534
1106,0.917292,12.751084,3.353027
1107,1.156794,14.453943,0.955613
1108,1.2502,16.453784,-2.215393
1109,1.528022,17.392632,-4.840334
1110,1.88009,17.126785,-5.858218
1111,1.396296,15.730488,-5.743257
1112,0.335303,13.941409,-5.685776
1113,-0.811912,12.636123,-5.252278
1114,-2.040557,11.572734,-3.614084
1115,-2.790198,11.179951,-2.117197
1116,-3.173401,11.110496,-0.728086
1117,-3.046465,11.191926,-0.167651
1118,-2.234553,11.048225,-0.170046
1119,-1.175955,10.605146,-0.687371
1120,-0.114961,9.86269,-1.116079
1121,0.754431,9.096284,-1.463357
1122,1.111289,8.205337,-1.516047
1123,0.965193,7.491621,-1.460962
1124,0.292192,6.636599,-1.341211
1125,-0.138911,5.896538,-1.396296
1126,-0.62031,5.259463,-1.22625
1127,-1.18793,4.797224,-1.080154
1128,-1.743574,4.636758,-0.960403
1129,-2.227368,4.552932,-0.728086
1130,-2.658472,4.459526,-0.397573
1131,-2.696792,4.643943,-0.411943
1132,-2.703977,4.921765,-0.344883
1133,-2.598596,5.146897,-0.222737
1134,-2.356699,5.326523,-0.03832
1135,-2.023792,5.455854,0.280217
1136,-1.738784,5.508545,0.574805
1137,-1.542393,5.436694,0.972378
1138,-1.499282,5.391189,1.722019
1139,-1.470542,5.618716,2.771038
1140,-1.257385,6.064189,4.33259
1141,-0.941243,6.77072,6.368357
1142,-0.811912,7.606582,8.562195
1143,-0.948428,8.289163,10.188413
1144,-0.756826,9.182505,11.009905
1145,0.02874,10.308164,10.811118
1146,1.324446,11.69967,9.939331
1147,2.524351,13.086387,8.456814
1148,3.228486,14.013259,7.060518
1149,3.187771,14.451548,5.925278
1150,2.083667,14.422808,6.397097
1151,0.193997,15.831079,9.589658
1152,-1.760339,19.255957,9.239985
1153,-2.062112,19.619401,8.384963
1154,-1.89925,19.619401,8.61728
1155,-4.461921,9.977651,-5.781577
1156,-7.764653,-2.464475,-8.708291
1157,-10.602751,-6.749165,-6.351592
1158,-9.508228,-5.970784,-7.187454
1159,-5.187612,-0.426313,-1.247805
1160,1.365161,6.758745,2.852468
1161,7.340735,11.6374,-2.687212
1162,8.502319,15.153289,-9.443562
1163,7.34792,19.619401,-7.505991
1164,4.718188,19.619401,-3.079995
1165,1.983076,17.76386,-0.519719
1166,0.00479,12.178674,0.811912
1167,-1.638193,7.242539,0.888552
1168,-3.829636,4.3278,1.688489
1169,-4.921765,4.121829,2.747087
1170,-4.773274,4.782854,1.906436
1171,-4.066743,5.939648,0.397573
1172,-4.066743,5.939648,0.397573
1173,-2.368674,7.31439,-0.637075
1174,0.263452,10.032737,-0.320933
1175,1.068179,10.585986,0.570015
1176,1.85614,10.794353,1.434617
1177,2.536326,10.36325,1.81782
1178,2.974614,9.83874,1.468147
1179,2.972219,9.539363,1.096919
1180,2.783013,9.426797,0.888552
1181,2.385439,9.489067,0.656235
1182,1.83698,9.563313,0.498164
1183,1.209485,9.750125,0.440684
1184,0.66821,10.044712,0.579595
1185,0.428708,10.389595,0.706531
1186,0.347278,10.698552,0.852627
1187,0.349673,11.167976,0.866997
1188,0.256267,11.898457,0.737666
1189,0.203577,12.559482,1.140029
1190,0.031135,12.609778,1.767524
1191,-0.680186,11.831396,2.555486
1192,-1.489702,10.559641,2.950664
1193,-2.030977,9.733359,3.151846
1194,-1.79866,9.891431,3.973337
1195,-0.835862,10.97877,4.459526
1196,0.838257,12.624148,4.490662
1197,2.658472,13.922249,3.72665
1198,3.915857,14.200071,2.905159
1199,3.915857,14.200071,2.905159
1200,3.551814,13.929434,1.707649
1201,2.680027,13.812078,2.639312
1202,2.864443,13.325889,3.954177
1203,4.117039,16.745977,4.979246
1204,5.925278,19.619401,5.870193
1205,6.001919,19.619401,5.055886
1206,3.391348,16.4945,2.143542
1207,-0.373623,13.395344,-0.244292
1208,-3.281177,12.554692,-2.4046
1209,-5.575605,14.434783,-6.792275
1210,-6.241421,16.700471,-7.38145
1211,-4.91458,18.997295,-3.432063
1212,-2.680027,19.619401,-1.053809
1213,-1.801055,18.942209,-1.013093
1214,-2.596201,17.184265,-1.777104
1215,-3.434458,14.971267,-2.713557
1216,-3.04407,13.958174,-2.754272
1217,-2.260898,13.304333,-2.600991
1218,-1.508862,12.240945,-2.308799
1219,-0.311353,10.964399,-2.46687
1220,0.244292,9.412427,-2.232158
1221,0.593965,8.171807,-2.931504
1222,0.984353,7.278464,-3.410508
1223,0.773591,6.296506,-3.10155
1224,0.452659,5.209167,-2.979404
1225,0.062271,4.030818,-2.917134
1226,-0.114961,3.08239,-2.912344
1227,-0.227527,2.212998,-3.003354
1228,-0.366438,1.681304,-2.900369
1229,-0.526904,1.322051,-2.469265
1230,-0.66821,1.16877,-2.157913
1231,-0.929268,1.17356,-1.844165
1232,-1.204695,1.238225,-1.678909
1233,-1.769919,1.314866,-1.580713
1234,-2.263293,1.401086,-1.288521
1235,-2.325564,1.657354,-0.723296
1236,-1.966311,2.263293,-0.565225
1237,-1.460962,2.953059,-1.314866
1238,-0.855022,4.011658,-2.088457
1239,-0.579595,6.389912,1.530417
1240,-0.919687,11.395503,11.927197
1241,-1.918411,16.626226,17.960251
1242,-3.151846,19.619401,19.619401
1243,-1.942361,19.619401,14.521003
1244,2.301614,19.619401,12.480447
1245,4.232,19.193687,8.54543
1246,1.908831,13.277988,5.441484
1247,-1.80345,8.619675,2.665657
1248,-4.524192,6.569539,3.71707
1249,-7.683223,8.399333,8.119116
1250,-9.17053,13.809683,6.528823
1251,-8.840017,18.163828,4.878655
1252,-5.412744,19.619401,10.346484
1253,-1.391506,15.158079,-2.957849
1254,1.008303,4.212839,-10.607542
1255,1.123264,-0.352068,-8.004155
1256,2.047742,-2.105222,-8.279583
1257,3.254832,-0.898132,-5.372029
1258,3.918252,3.314707,-2.172283
1259,3.262017,8.131091,-4.071533
1260,2.759063,11.448193,-6.753955
1261,3.223696,15.958015,-4.984036
1262,3.10155,18.496736,-1.635798
1263,1.904041,17.258511,0.380808
1264,-0.170046,13.349839,2.315984
1265,-1.343606,10.231523,2.574646
1266,-1.963916,7.41019,1.487307
1267,-1.858535,5.776787,0.66342
1268,-1.453777,5.431904,0.435894
1269,-0.840652,6.167175,0.737666
1270,-0.447869,7.266489,0.890947
1271,-0.380808,8.499924,0.977168
1272,-0.529299,9.616003,0.893342
1273,-0.438289,10.394385,1.092129
1274,0.031135,10.825488,1.005908
1275,0.60115,10.643467,0.931663
1276,1.152004,10.164463,0.855022
1277,1.432222,9.527388,0.673
1278,1.396296,8.954978,0.60594
1279,1.144819,8.648416,0.476609
1280,0.924478,8.686736,0.249082
1281,0.708926,9.249565,0.002395
1282,0.646655,9.903406,0.03832
1283,0.670605,10.38241,0.399968
1284,0.61552,10.775193,0.919687
1285,0.455054,10.832673,1.413062
1286,0.234712,10.492581,1.532813
1287,-0.162861,10.075847,1.575923
1288,-0.759221,10.3872,1.839375
1289,-1.228645,11.07457,2.378254
1290,-1.161584,11.00751,2.862048
1291,-0.522114,10.614727,3.027305
1292,0.728086,10.99314,2.802173
1293,2.402205,12.212205,2.205813
1294,3.616479,13.400134,1.041833
1295,3.793711,13.996494,0.409548
1296,3.609294,14.343772,0.977168
1297,3.293152,13.876743,2.919529
1298,2.622546,13.182188,5.302573
1299,2.493215,12.92592,6.167175
1300,3.295547,16.892073,6.564749
1301,4.969666,19.619401,6.75635
1302,4.816384,19.619401,5.537285
1303,1.961521,16.068186,2.826123
1304,-1.731599,12.547507,0.352068
1305,-4.517007,11.06499,-1.738784
1306,-5.800737,11.70925,-4.488267
1307,-6.313271,14.073135,-7.297625
1308,-6.313271,14.073135,-7.297625
1309,-4.040398,18.853594,-1.580713
1310,-2.150728,19.155366,-0.919687
1311,-1.451382,18.051262,-1.166375
1312,-1.26457,15.608342,-1.717229
1313,-0.728086,13.740227,-2.634521
1314,0.03832,12.528347,-2.684817
1315,0.550854,11.433823,-2.294429
1316,0.866997,10.466235,-2.033372
1317,1.547183,9.769285,-2.239343
1318,1.547183,9.769285,-2.239343
1319,0.843047,8.171807,-2.866838
1320,0.584385,7.733518,-2.747087
1321,0.198787,7.000642,-2.330354
1322,-0.136516,6.047424,-2.260898
1323,-0.419128,5.072651,-2.335144
1324,-0.646655,4.045188,-2.169888
1325,-0.938848,3.264412,-2.186653
1326,-1.199905,2.689607,-2.088457
1327,-1.396296,2.260898,-1.85614
1328,-1.346001,2.167493,-1.609453
1329,-1.580713,2.050137,-1.362766
1330,-1.796265,2.153123,-1.17835
1331,-2.050137,2.392625,-1.025068
1332,-2.47166,2.706372,-0.65384
1333,-2.790198,2.794988,-0.399968
1334,-2.694397,2.869233,-0.074246
1335,-2.081272,3.365002,0.356858
1336,-1.539998,3.982917,0.989143
1337,-1.429827,5.767207,3.398533
1338,-1.583108,9.855505,9.098679
1339,-1.583108,9.855505,9.098679
1340,-1.829795,15.165264,14.037209
1341,-2.569856,19.619401,18.156643
1342,2.035767,19.619401,13.395344
1343,4.306245,19.619401,10.099797
1344,2.196233,13.780942,6.358777
1345,-0.862207,8.897498,3.295547
1346,-2.957849,5.350474,2.929109
1347,-5.235513,5.364844,7.417375
1348,-7.680828,8.56938,6.598279
1349,-9.230405,14.178516,4.552932
1350,-8.279583,19.619401,6.569539
1351,-4.234395,19.138601,1.343606
1352,0.60594,11.999048,-5.070256
1353,3.853586,6.938372,-4.107458
1354,5.048701,3.309917,-4.418811
1355,4.739744,1.475332,-5.783972
1356,3.463198,1.992656,-4.677473
1357,1.616638,5.455854,-2.917134
1358,0.428708,8.305928,-4.696633
1359,0.555645,11.07457,-4.624783
1360,1.468147,14.15217,-2.057322
1361,2.292034,15.328125,0.112566
1362,2.198628,13.826448,0.744851
1363,1.020278,11.749966,1.2023
1364,0.067061,10.298584,1.513652
1365,-0.62989,9.2328,1.456172
1366,-0.972378,8.53106,1.508862
1367,-1.135239,8.018525,1.571133
1368,-1.089734,7.898774,1.266965
1369,-0.761616,8.090376,0.708926
1370,-0.534089,8.638835,0.433499
1371,-0.498164,9.357341,0.282612
1372,-0.464634,10.118958,0.160466
1373,-0.208367,10.636282,0.160466
1374,0.431104,10.641072,0.129331
1375,1.037043,10.518926,0.162861
1376,1.037043,10.518926,0.162861
1377,1.480122,10.238708,0.105381
1378,1.820215,9.570498,0.282612
1379,1.650168,9.374106,0.258662
1380,1.393901,9.431587,0.256267
1381,1.262175,9.505833,0.05269
1382,1.070574,9.563313,-0.021555
1383,0.919687,9.431587,0.196392
1384,0.651445,9.390872,0.792751
1385,0.193997,9.527388,1.305286
1386,-0.318538,9.637559,1.810635
1387,-0.859812,9.620793,1.968706
1388,-1.374741,9.235195,1.88967
1389,-1.745969,8.686736,1.705254
1390,-2.009421,8.222102,1.290916
1391,-1.88488,7.714358,0.737666
1392,-1.243015,7.515571,0.265847
1393,-0.045505,8.128696,-0.100591
1394,1.405876,9.433982,-0.337698
1395,2.584226,11.048225,-0.481399
1396,3.06323,11.826606,-0.241897
1397,3.056045,11.076965,-0.170046
1398,3.056045,11.076965,-0.170046
1399,2.260898,9.690249,0.938848
1400,1.456172,10.111772,2.581831
1401,0.687371,10.712922,3.951782
1402,0.007185,10.870994,4.96248
1403,-0.407153,10.298584,5.249883
1404,-0.349673,10.40157,3.863167
1405,-0.229922,16.520845,2.035767
1406,0.701741,19.619401,1.389111
1407,1.322051,18.887124,1.262175
1408,0.797542,14.547349,0.059875
1409,-0.134121,15.318545,-1.549578
1410,-1.504072,17.692009,-3.173401
1411,-3.597319,18.539846,-4.912185
1412,-5.498965,17.596208,-5.793552
1413,-6.224656,16.061001,-5.357659
1414,-5.745652,15.598762,-4.095483
1415,-4.483477,15.596367,-2.677632
1416,-3.611689,15.047908,-1.932781
1417,-3.089575,14.252761,-1.995051
1418,-3.036885,13.438455,-2.620151
1419,-3.05844,12.770244,-2.684817
1420,-2.845283,12.698394,-2.112407
1421,-2.555486,12.509187,-1.992656
1422,-1.987866,12.087664,-2.093247
1423,-1.247805,11.548784,-2.383044
1424,-0.5772,11.120076,-2.802173
1425,-0.294587,10.45426,-3.214116
1426,-0.387993,9.501042,-3.956572
1427,-0.608335,8.444839,-4.768484
1428,-0.799937,7.30002,-5.185217
1429,-1.029858,6.006709,-5.106182
1430,-1.163979,4.521797,-4.416416
1431,-0.900527,3.10155,-3.288362
1432,-0.720901,1.741179,-1.743574
1433,-0.63468,0.546064,-0.467029
1434,-0.574805,0.067061,0.095801
1435,-0.598755,0.246687,-0.04311
1436,-0.857417,0.613125,-1.223855
1437,-1.312471,1.420247,-2.069297
1438,-2.086062,2.869233,-2.217788
1439,-2.890789,4.840334,-1.781895
1440,-3.558999,6.571934,-1.144819
1441,-4.325405,8.463999,-0.749641
1442,-4.979246,11.0123,1.204695
1443,-5.748047,14.990427,3.180586
1444,-5.56842,19.619401,6.971902
1445,-3.314707,19.619401,11.697275
1446,-3.314707,19.619401,11.697275
1447,-1.072969,19.619401,6.342012
1448,-1.738784,14.154565,-0.526904
1449,-4.370911,7.570657,-1.954336
1450,-5.46783,3.769761,-1.307681
1451,-5.130132,1.149609,-1.741179
1452,-3.760181,-0.287402,-1.932781
1453,-2.723137,-0.282612,-0.974773
1454,-1.597478,1.427432,-1.161584
1455,0.447869,5.872588,-2.212998
1456,2.756667,12.080479,-1.561553
1457,5.019961,17.82613,-1.128054
1458,6.397097,19.619401,-1.166375
1459,6.270161,18.697917,-0.459844
1460,4.976851,14.717395,-0.517324
1461,2.787803,10.820698,-0.55804
1462,0.395178,8.298743,-0.531694
1463,-1.628613,7.185059,-0.548459
1464,-3.09676,7.3096,-0.661025
1465,-3.489543,8.013735,-0.136516
1466,-3.484753,8.971743,0.608335
1467,-3.271597,9.817185,0.936453
1468,-3.09676,10.648257,1.128054
1469,-2.945874,11.227852,0.802332
1470,-2.701582,11.287727,0.56283
1471,-2.275269,10.906919,0.479004
1472,-1.781895,10.502161,0.452659
1473,-1.365161,10.042317,0.359253
1474,-1.072969,9.869875,0.067061
1475,-0.857417,9.898616,-0.217947
1476,-0.811912,10.001602,-0.414338
1477,-0.55804,10.008787,-0.56283
1478,-0.196392,10.200388,-0.603545
1479,0.371228,10.43989,-0.548459
1480,0.898132,10.724897,-0.622705
1481,1.314866,10.880574,-0.689766
