acc x,acc y,acc z
0.277374,9.495377,-0.893402
0.289734,9.487045,-0.845642
0.284561,9.510254,-0.807098
0.298859,9.530685,-0.811508
0.330444,9.517441,-0.776627
0.42244,9.541458,-0.718719
0.475876,9.610489,-0.690536
0.523117,9.668884,-0.622101
0.473694,9.675583,-0.529938
0.414352,9.655212,-0.462021
0.447784,9.644836,-0.435547
0.516312,9.810364,-0.714035
0.714218,10.177856,-0.937759
0.828873,10.478683,-0.939392
0.844482,10.517593,-0.762741
0.68457,10.385651,-0.357437
0.427322,10.078629,-0.060776
0.340179,9.83165,0.057693
0.349762,9.808624,0.112595
0.442337,10.003479,0.113327
0.629456,10.253952,-0.0457
0.845978,10.623627,-0.113754
0.863937,11.020264,-0.190598
0.853226,11.416611,-0.080933
0.912415,11.68335,-0.076996
1.028809,11.880112,0.059692
1.252838,11.853317,0.032486
1.335297,11.581421,0.034149
1.458374,11.10495,0.117905
1.66655,10.633362,0.543823
1.925568,10.239853,0.463776
2.35405,9.96019,-0.229919
2.769897,9.934769,-0.070496
2.759552,9.677078,0.634583
2.35405,9.215713,1.279419
2.35405,8.749023,1.482727
2.672165,8.475739,1.449417
2.649902,8.266052,1.368271
2.616287,8.23494,1.492798
2.62207,8.375992,1.955292
2.367126,8.231338,2.084549
1.916168,7.911056,2.424789
1.705277,7.528473,2.50621
1.62532,7.171753,2.694107
1.695679,6.915771,2.752731
1.905655,6.78978,3.080688
2.165573,6.754868,3.325455
2.370026,6.919998,3.602936
2.56282,7.128037,3.679688
2.693909,7.372833,3.539566
2.766388,7.687897,3.362442
2.542557,7.912125,3.240738
2.364593,8.176025,3.068634
2.408661,8.362335,3.15004
2.303055,8.289612,3.041305
2.378235,8.263763,3.185059
2.335526,8.109573,3.233795
2.367676,7.875641,3.385864
2.106079,7.542694,3.596649
1.761215,7.171005,3.757584
1.412262,6.890839,3.802322
1.322327,6.929382,3.861054
1.616653,7.175751,4.114533
1.893936,7.407135,4.305313
2.107971,7.631622,4.226502
2.289795,7.815521,3.960983
2.506134,7.872788,3.810898
2.674164,7.939636,3.750061
2.792358,8.258499,3.873993
2.808182,8.921127,4.327515
2.957565,9.60939,4.635788
3.143265,10.185715,4.815186
3.170029,10.586044,4.81424
3.135483,10.601349,4.949753
3.05275,10.378387,5.501556
2.91748,9.806946,6.269546
2.90686,8.903854,6.904907
2.861008,8.238083,7.230347
2.841492,8.635117,7.102341
3.181381,10.454453,6.957275
3.499588,12.85997,6.42836
3.78128,13.940338,4.536804
3.22879,12.601807,2.217911
1.886658,9.599991,1.045395
0.827133,6.059891,0.667664
0.311554,3.669388,0.180664
-0.462326,3.616074,-0.325912
-1.766754,5.882721,-1.083221
-3.043915,8.72348,-2.431961
-4.093231,10.832626,-3.93663
-4.518768,11.445709,-4.399109
-3.876907,10.771317,-3.670013
-2.416,9.66539,-2.165924
-0.619888,8.73085,-0.49086
0.967392,8.375137,0.235519
2.034088,8.481201,0.119873
2.664352,8.901047,0.131653
2.860199,9.313675,0.630539
2.407776,9.420975,0.786331
1.490616,9.233459,0.042404
0.288864,8.874191,-0.828339
-0.99437,8.514206,-1.281601
-1.976624,8.273117,-1.469147
-2.468872,8.174713,-1.65358
-2.615875,8.069733,-1.865128
-2.531937,7.974182,-1.870209
-2.222763,7.904282,-1.889389
-1.7845,7.959702,-1.897156
-1.367828,8.137039,-1.78653
-0.914612,8.332138,-1.701706
-0.541016,8.576508,-1.572449
-0.12355,8.932205,-1.692093
0.247894,9.302582,-1.768356
0.582535,9.55986,-1.721954
0.645065,9.486221,-1.774139
0.509293,9.279648,-1.746674
0.331345,9.088837,-1.628754
0.250748,9.051041,-1.390686
0.057861,9.183426,-1.280533
-0.179962,9.562088,-1.235672
-0.405487,10.129333,-1.369507
-0.20903,11.042709,-1.635055
-0.139984,11.851028,-1.421646
-0.402405,12.230682,-0.71843
-0.770462,12.180481,-0.109207
-1.054062,11.689728,-0.057846
-1.142944,11.259567,-0.342911
-1.054321,11.113647,-0.634415
-0.676392,11.493408,-0.801758
-0.72995,11.642105,-0.721619
-1.001648,11.48999,-0.989944
-1.547775,11.618927,-1.526077
-2.236771,11.870026,-1.73848
-2.683334,11.763733,-1.500397
-2.617188,11.702759,-0.904465
-2.300568,11.447159,-0.432632
-2.815323,11.154907,-0.718994
-3.784592,12.186142,-1.866791
-3.065048,13.938538,-2.335907
-1.438553,13.862701,-2.745743
-0.132401,12.132034,-3.381775
0.827332,10.31633,-3.956421
1.514328,9.270874,-4.40242
2.192963,9.543304,-5.00293
3.436966,10.850769,-4.601349
4.346878,11.691956,-4.247879
4.270996,12.031067,-4.753937
3.784653,12.08194,-5.432938
3.292282,12.10527,-5.592789
2.629639,12.206665,-5.348236
1.951538,12.265366,-5.015427
1.289169,12.248566,-5.48494
0.516403,12.123947,-5.352478
0.627411,11.806183,-4.978577
1.270493,11.613464,-4.161621
1.889557,10.890289,-3.063492
2.171326,10.079147,-2.218201
1.645248,8.712891,-1.466049
0.28125,7.165512,-0.918869
-0.581635,5.963409,-0.4151
-0.462875,5.221847,-0.16629
0.029907,4.787643,-0.323639
0.798248,4.806946,-0.316086
1.835098,5.033462,0.227173
2.547394,5.236084,0.482864
3.088944,5.45076,0.823334
3.150726,5.396286,0.937744
3.260956,5.32608,1.009827
3.410004,5.238586,1.225967
2.874466,4.807159,1.394653
2.605103,4.402741,1.432419
2.383469,4.276413,1.434937
1.944748,4.210648,1.207428
1.662323,4.388458,0.885986
1.208252,4.751129,0.556076
0.702026,5.229034,0.440018
-0.00502,5.801041,0.922195
-0.521057,6.157196,1.938538
-0.962524,6.47081,3.171951
-0.953415,6.732819,4.928711
-0.362411,7.300079,7.007309
0.781708,8.256989,9.069305
2.168915,9.878479,10.2202
3.345184,11.945923,10.446823
3.920517,14.053177,9.919159
3.393051,16.093231,9.062592
2.198181,17.452469,8.149506
1.347763,17.493912,7.02919
1.81311,15.574341,6.798462
3.358597,12.156937,7.215424
4.782654,8.43837,7.507385
5.031555,5.552734,7.49057
2.263489,5.391128,7.715088
-1.832565,8.202118,8.276276
-3.375351,12.341309,4.645004
-2.734451,14.541672,-2.341995
-1.008896,13.589355,-9.086609
0.14476,10.564835,-11.081299
-0.046494,7.237122,-6.569717
0.463226,4.029999,-0.799057
1.523819,1.85498,0.789261
-1.083954,2.68219,-0.222641
-4.961441,6.234451,-2.090241
-5.477508,10.993973,-4.140686
-2.60701,13.930618,-4.082581
0.615021,13.957855,-2.11969
1.82753,11.392395,-0.63385
1.761002,8.298676,-0.372986
1.503998,6.15271,-0.284424
1.078949,5.499344,-0.357895
0.245132,6.101502,-0.732773
-0.774155,7.292099,-1.415176
-1.396103,8.530197,-2.178497
-1.392593,9.265381,-2.490692
-0.83197,9.572586,-2.209885
-0.085632,9.319153,-1.683182
0.324463,8.701904,-1.378982
0.416214,8.076309,-1.221039
0.442535,7.609863,-1.302216
0.43483,7.47699,-1.571274
0.307022,7.684051,-1.871399
0.15361,8.105469,-2.198196
-0.218369,8.582535,-2.47319
-0.829666,8.989044,-2.508499
-1.198319,9.328659,-2.126114
-1.26683,9.516296,-1.805801
-0.863373,9.918762,-1.696487
-0.054276,10.523209,-1.528671
0.563568,11.132385,-1.005417
0.963348,11.504623,-0.238083
0.950653,11.504379,0.464233
0.199829,11.292084,0.686218
-0.911957,10.896301,0.342178
-1.926712,10.143066,-0.733261
-2.573074,9.775192,-1.591949
-3.034775,10.194611,-1.848816
-3.071121,10.82608,-1.82048
-2.923248,11.232651,-1.745377
-2.937378,11.936401,-1.468704
-2.705704,12.799591,-1.055801
-1.620819,12.698807,-0.796616
-0.316605,12.023392,-0.472015
0.220261,11.756683,0.280075
0.006516,11.662933,0.644073
-1.295319,11.562332,0.080627
-3.094269,12.911636,-0.842407
-2.755463,14.317322,-1.87738
-1.098679,13.450989,-3.418503
0.465927,11.11113,-4.651092
1.800018,9.794678,-5.667877
2.781662,9.789719,-5.682999
3.337845,10.28389,-4.847427
3.540344,11.022247,-4.492111
4.021668,11.889511,-4.787842
4.263092,12.581482,-4.723648
3.693375,13.173706,-4.539658
2.441727,13.69693,-4.651306
1.218735,13.970978,-5.040634
0.053528,13.620316,-5.157547
-1.298981,12.762116,-4.528198
-1.210983,11.82695,-4.135467
-0.188446,10.754303,-4.017181
0.55513,9.455627,-4.251343
1.110519,8.357407,-3.615692
1.582291,7.478058,-2.904083
2.067871,6.657059,-2.104172
2.511292,6.057053,-1.301437
3.050522,5.575501,-0.134521
3.080063,5.08757,0.715088
2.970444,4.59639,1.209717
2.950302,4.462112,1.126907
2.917206,4.674484,1.093353
2.778458,5.113129,0.985931
2.580185,5.459625,0.774353
2.584824,5.698288,0.693253
2.58078,5.68013,0.433929
2.673828,5.760193,0.552948
2.626144,5.882919,0.739777
2.47821,5.94989,0.69133
2.253754,6.016739,0.959518
1.918198,6.028687,1.267181
1.28447,5.801117,1.541214
0.940308,5.460785,1.994522
0.566742,5.375381,2.978653
0.089874,5.261642,3.968933
-0.305542,5.209198,4.798477
0.177658,5.600342,5.70668
1.251816,6.618774,6.797958
1.711227,8.470489,8.185242
0.756119,11.411713,8.901611
-0.618103,14.689789,8.871674
-0.782486,18.07724,8.49968
1.021164,19.307755,6.923004
4.267227,18.435532,4.510422
6.128632,14.179291,3.87825
6.323257,9.681274,5.088959
5.468063,6.947449,6.106171
3.612396,5.885162,5.798309
1.725205,5.735809,4.694687
-3.00795,9.630692,2.803284
-2.499649,14.479111,0.097198
2.871063,15.789383,-6.741486
1.299957,13.643616,-10.070404
-1.652573,11.01857,-8.425323
-0.506287,7.447327,-3.512665
0.030441,3.586136,0.588135
0.119217,2.005264,1.314484
0.202744,2.240982,-0.959183
-0.935364,4.158127,-2.935211
-2.604843,7.74115,-3.796143
-3.212387,10.836426,-4.281845
-2.605453,11.938004,-4.601593
-1.740646,11.519455,-4.525772
-1.25618,9.995346,-3.656723
-0.822556,8.668488,-2.80896
-0.384506,7.929352,-2.069961
-0.272491,7.649735,-1.365509
-0.426025,7.789108,-1.219009
-0.54335,8.207275,-1.338211
-0.667358,8.682678,-1.620407
-0.715607,9.068176,-2.0047
-0.676437,9.406754,-2.149933
-0.728867,9.62175,-2.129837
-0.901108,9.387619,-2.028549
-1.135055,8.938766,-1.807114
-1.128937,8.819077,-1.686188
-0.956451,8.830902,-1.839889
-0.764893,8.776123,-1.877899
-0.700485,8.752914,-1.665405
-0.989014,8.713638,-1.574219
-1.354324,8.849213,-1.703705
-1.383835,9.136566,-1.873123
-1.223831,9.399185,-1.850967
-0.927475,9.649292,-1.685364
-0.446808,10.014908,-1.626129
0.03067,10.411301,-1.552719
0.299377,10.646515,-1.164368
0.167023,10.77063,-0.502533
-0.2108,10.938171,0.147125
-0.813553,10.85498,0.545349
-1.576813,10.504822,0.549927
-2.148285,10.423874,0.172379
-2.104721,10.799286,-0.710342
-1.78006,11.123199,-1.556137
-1.905716,11.063049,-1.88681
-2.27536,10.840683,-1.635757
-2.132996,10.946411,-1.144424
-1.565735,11.205154,-0.905502
-0.879807,11.247116,-0.516998
-0.555328,11.056458,0.296051
-0.577347,10.833572,0.805908
-0.940369,10.496521,0.426254
-2.192841,11.350662,-0.754089
-2.769013,13.57019,-2.358948
-1.734528,14.340012,-3.936996
-0.183441,12.581787,-4.91655
1.184708,10.870667,-5.755295
2.540573,10.394043,-5.874649
3.26825,10.668015,-4.961319
2.847153,11.111328,-4.554321
2.788178,11.811554,-4.518921
3.678421,12.680969,-4.369842
4.108551,13.320129,-4.161835
3.440552,13.616684,-4.281265
1.766373,13.540131,-4.641983
0.287613,13.178375,-4.878662
-0.932037,12.36377,-5.069321
-1.439941,11.425079,-4.691193
-1.036758,10.414307,-4.066879
-0.14003,9.334244,-3.701111
0.616058,8.346374,-3.202881
1.104721,7.566147,-2.677734
1.555359,6.779312,-1.638718
2.101334,6.156738,-0.754181
2.669312,5.911652,-0.008865
2.996094,5.873474,0.497528
3.014313,5.872848,0.639252
2.932342,6.018662,0.522125
3.064316,6.079803,0.199081
2.837112,6.111511,-0.05484
2.424866,6.22319,-0.106995
2.179321,6.250717,0.146591
2.327881,6.199158,0.463547
2.528046,6.254501,0.798798
2.532745,6.548203,1.130402
2.213592,6.822601,1.247848
1.262207,7.003113,1.266892
0.663345,7.096634,1.397354
0.453842,7.109665,1.882874
0.233429,6.706345,2.347153
0.27829,6.282089,2.729492
0.363342,5.917297,3.100998
0.765091,5.747574,3.265533
1.141586,5.963715,3.616455
1.335785,6.67247,4.013458
1.221085,7.947052,4.660477
0.94722,10.628006,6.100876
0.297607,13.035507,6.770905
0.554443,15.521408,6.755615
1.564636,16.917496,6.246124
2.821426,16.121078,5.290695
4.093124,13.955139,4.666275
4.947967,10.200104,4.679047
4.483414,7.099136,5.006943
2.830399,5.416321,5.11058
0.646011,5.518539,5.168854
-1.719955,6.984482,5.364822
-3.022369,8.724152,2.623154
-1.733475,10.668366,-2.070374
-0.978561,13.513779,-5.01181
1.542038,17.746964,-6.565735
4.76326,19.300522,-5.140488
4.948425,17.82698,-0.084091
3.328003,10.880722,3.009781
3.179352,3.487763,2.088867
2.306427,0.195282,-0.590897
-0.110031,0.319595,-2.915237
-2.609619,3.286804,-4.427429
-3.950562,7.163605,-4.946503
-4.441452,10.601318,-5.380035
-4.15593,12.930038,-5.645294
-3.084488,13.628174,-4.979584
-2.125473,12.332077,-3.585754
-1.42215,10.055832,-1.563019
-1.131897,8.360184,0.015549
-1.150452,7.350449,1.021606
-0.988754,7.523178,0.857895
-0.369278,8.37529,0.015137
0.491455,9.474899,-0.59465
0.935165,10.258606,-0.985611
0.778397,10.388733,-0.959976
0.415909,10.189468,-0.546555
0.25264,9.962646,-0.121658
-0.051117,9.737488,-0.020752
-0.454849,9.563629,-0.160446
-0.832626,9.414505,-0.463272
-1.088257,9.237686,-0.721939
-1.146835,9.023514,-0.984772
-1.135986,8.903976,-1.253738
-1.226547,8.995941,-1.352844
-1.235474,9.219696,-1.158768
-0.892731,9.521988,-0.705292
-0.373642,9.634079,-0.293747
-0.013947,9.497086,-0.043228
-0.017731,9.25734,-0.173965
0.023376,9.15741,-1.00557
0.306229,9.270081,-2.131439
0.448593,9.488312,-2.673309
0.38768,9.603134,-2.349808
0.072403,9.604248,-1.520523
-0.529358,9.574905,-0.864304
-0.968658,9.564514,-0.792374
-1.036591,9.532318,-1.058029
-1.027679,9.38678,-1.218048
-1.077683,9.207886,-1.233048
-1.189743,9.072128,-1.378555
-1.323441,9.117462,-1.611465
-1.271698,9.343552,-1.895828
-0.952469,9.606369,-2.105194
-0.430969,9.709839,-2.161056
-0.028061,9.576462,-2.021439
0.102509,9.394897,-1.916412
0.110092,9.4254,-1.942429
-0.012848,9.676437,-2.073517
-0.299316,9.926514,-2.217178
-0.625259,9.85852,-2.31131
-1.01442,9.625,-2.390091
-1.389954,9.503006,-2.590241
-1.503403,9.87709,-2.896103
-1.449661,10.567917,-3.239822
-1.39653,11.120743,-3.598404
-1.310715,11.129654,-3.712036
-1.079849,10.682861,-3.415573
-0.859024,9.932266,-2.865692
-0.565689,9.320618,-2.533386
-0.07312,9.13649,-2.458862
0.558441,9.27713,-2.578323
1.017349,9.391968,-2.691681
1.158539,9.366959,-2.831848
0.978363,9.056152,-2.911102
0.64801,8.51152,-2.952759
0.296768,8.178268,-2.864945
0.247253,8.127243,-2.819855
0.295029,8.247269,-2.815002
0.136459,8.372284,-2.984985
-0.04657,8.759369,-3.034821
-0.224228,9.093536,-3.180572
-0.433701,9.484451,-3.071121
-0.33786,9.769287,-2.57283
-0.243607,9.949326,-2.552719
0.670059,10.203186,-2.566391
1.405319,10.5215,-2.454941
2.160934,10.877487,-2.136246
2.3815,11.044159,-1.778931
2.366821,11.097122,-1.525314
2.162231,10.980911,-1.452698
1.855499,10.768249,-1.287933
1.562927,10.498871,-1.198334
1.202927,10.15329,-1.26416
0.861176,9.805618,-1.457367
0.803101,9.560318,-1.537003
0.494553,9.348145,-1.569397
0.483307,9.158234,-1.289658
0.350189,9.015595,-1.322357
0.483932,8.828995,-1.27977
0.766617,8.659836,-1.316849
1.257629,8.536774,-1.172195
1.56842,8.408691,-1.152023
1.801086,8.268173,-1.103653
1.781219,8.216507,-0.99736
1.792969,8.306076,-0.893997
1.622452,8.406662,-0.663666
1.495636,8.630447,-0.50563
1.446198,8.734299,-0.561523
1.462219,8.703674,-0.539078
1.414566,8.667297,-0.484863
1.232864,8.687164,-0.436279
1.165787,8.695587,-0.381363
1.154205,8.753754,-0.312759
1.345551,8.859467,-0.274155
1.604782,9.112976,-0.139282
1.783035,9.35701,-0.081635
1.959595,9.581802,-0.249466
2.108139,9.80516,-0.245316
2.208374,9.92981,-0.000443
1.98793,9.979965,0.057938
1.820068,9.848618,-0.00499
1.661194,9.699524,-0.279144
1.506271,9.545837,-0.510803
1.490326,9.430786,-0.510361
1.547714,9.274948,-0.527283
1.478348,9.17952,-0.603561
1.301407,9.309799,-0.635971
1.082977,9.63147,-0.578705
0.914719,10.085556,-0.347595
0.899323,10.465027,-0.079163
0.930038,10.562271,0.137848
0.861374,10.202988,0.196136
0.72142,9.553528,0.021393
0.741379,8.913849,-0.56163
0.851334,8.611877,-1.080872
0.846252,8.664291,-1.523544
0.91217,9.041657,-1.784226
1.147919,9.524277,-1.883591
1.352799,9.982452,-1.716766
1.429321,10.248123,-1.287826
1.400146,10.177231,-0.874008
1.406799,9.927689,-0.54306
1.463898,9.605576,-0.513382
