frame,acc x,acc y,acc z
844,0.914897,10.116563,-1.437012
845,0.716111,10.145303,-1.355581
846,0.541274,10.135723,-1.252595
847,0.419128,10.183623,-1.163979
848,0.261057,10.265054,-1.113684
849,0.265847,10.334509,-0.967588
850,0.289797,10.358459,-0.766406
851,0.378413,10.418335,-0.565225
852,0.481399,10.42552,-0.431104
853,0.670605,10.399175,-0.320933
854,0.807122,10.45426,-0.0479
855,0.893342,10.521321,0.373623
856,0.819097,10.621912,0.862207
857,0.780776,10.674602,1.015488
858,0.756826,10.684182,1.317261
859,0.845442,10.909314,1.506467
860,0.955613,11.134446,1.825005
861,0.878972,11.352393,2.129172
862,0.744851,11.417058,2.117197
863,0.613125,11.543994,1.951941
864,0.493374,11.872112,1.681304
865,0.541274,12.166699,1.681304
866,0.58199,12.621753,1.911226
867,0.538879,12.91155,2.311194
868,0.409548,12.983401,2.507585
869,0.201182,12.89718,2.39502
870,-0.035925,12.470867,2.248923
871,-0.301772,11.893667,1.84656
872,-0.296982,11.393108,1.616638
873,-0.122146,11.067385,1.305286
874,0.464634,10.99314,1.247805
875,1.508862,11.057805,1.190325
876,2.545906,11.076965,0.852627
877,3.242856,10.722502,0.464634
878,3.6548,10.353669,-0.05269
879,3.901487,9.968071,-0.332908
880,4.028423,9.738149,-0.325723
881,3.956572,9.467512,0.143701
882,3.935017,9.22801,0.443079
883,3.714675,9.187295,0.766406
884,3.218906,9.050779,0.950823
885,2.521956,8.844807,1.111289
886,1.801055,8.519084,1.288521
887,1.346001,8.296348,1.446592
888,1.19272,8.195757,1.762734
889,1.27894,8.272397,2.090852
890,1.393901,8.281978,2.5004
891,1.542393,8.313113,2.622546
892,1.724414,8.382568,2.751877
893,1.918411,8.332273,2.919529
894,2.090852,8.186177,3.094365
895,2.064507,7.824529,3.10634
896,1.872905,7.431746,3.056045
897,1.825005,6.976692,2.996169
898,1.911226,6.576724,3.099155
899,1.78429,6.296506,3.079995
900,1.427432,5.910908,3.07281
901,1.159189,5.788762,3.218906
902,0.998723,5.716912,3.297942
903,0.993933,6.018684,3.925437
904,1.137634,6.583909,4.382886
905,1.293311,7.108418,4.665498
906,1.417852,7.896379,5.269043
907,1.585503,8.619675,5.836663
908,1.78429,9.460327,6.562354
909,2.320774,10.174043,7.089258
910,3.113525,10.607542,7.625742
911,3.690725,10.700947,8.169412
912,4.129014,10.576406,8.224497
913,4.232,10.087822,8.289163
914,4.042793,9.23759,7.994575
915,3.71228,8.408914,7.608977
916,3.238066,8.145461,7.137158
917,2.972219,8.116721,6.71803
918,3.070415,8.61249,6.461763
919,3.67875,9.350156,5.982759
920,4.734954,10.966794,6.248606
921,5.621111,12.664863,6.576724
922,5.666616,13.373789,5.927673
923,5.561235,12.061318,3.269202
924,5.429509,8.995693,1.051414
925,5.245093,5.654641,0.505349
926,4.639153,3.0297,1.099314
927,3.432063,2.342329,0.948428
928,1.566343,4.830754,-0.117356
929,-0.246687,8.799302,-0.608335
930,-1.755549,12.23376,-0.589175
931,-2.644102,13.680352,0.455054
932,-3.08718,12.650493,0.579595
933,-2.763853,10.209968,-0.720901
934,-1.973496,8.463999,-1.228645
935,-1.243015,8.131091,-1.113684
936,-1.025068,8.665181,-1.029858
937,-0.910107,9.419612,-0.878972
938,-0.723296,10.217153,-0.500559
939,-0.56283,10.648257,-0.483794
940,-0.220342,10.715317,-0.58678
941,0.656235,10.585986,-0.766406
942,2.445315,10.653047,-1.116079
943,2.677632,10.45905,-0.922083
944,1.444197,9.944121,-0.869392
945,-0.172441,9.304651,-1.099314
946,-1.147214,8.837622,-1.180745
947,-1.640588,8.861572,-1.175955
948,-1.825005,9.319021,-1.175955
949,-1.561553,9.884246,-0.819097
950,-1.116079,10.344089,-0.65384
951,-0.546064,10.490186,-0.397573
952,-0.158071,10.293794,-0.58199
953,0.129331,9.745334,-1.2023
954,0.380808,9.398057,-1.925596
955,0.131726,9.340576,-2.196233
956,0.198787,9.517808,-2.483635
957,0.059875,9.884246,-2.296824
958,0.0479,10.109377,-2.167493
959,0.112566,10.061477,-2.167493
960,0.364043,10.336904,-1.690884
961,0.785566,11.251802,-0.742456
962,0.924478,12.197834,0.222737
963,0.675396,13.218113,1.156794
964,0.114961,13.373789,1.858535
965,-0.222737,12.83012,2.023792
966,0.244292,12.418176,1.992656
967,0.740061,12.89718,2.600991
968,0.59636,13.558206,2.284849
969,-0.220342,14.018049,1.537603
970,-1.398691,14.336587,1.094524
971,-2.706372,14.669495,0.598755
972,-3.578159,15.055093,0.696951
973,-3.946992,14.894626,0.65863
974,-3.990103,14.72937,0.706531
975,-4.006868,14.578484,1.087339
976,-4.840334,15.385605,1.516047
977,-5.592371,16.197517,1.642983
978,-4.751719,15.629897,2.201023
979,-2.612966,14.053975,3.06323
980,-0.196392,12.578643,3.791316
981,2.459685,11.862532,4.921765
982,5.161267,12.190649,4.88105
983,6.004314,13.610896,3.317102
984,4.835544,13.900693,-0.134121
985,3.329077,13.589341,-2.874023
986,2.251318,13.50791,-5.427114
987,1.233435,13.43127,-7.146738
988,0.483794,13.864768,-6.413862
989,-0.304167,14.65752,-4.23679
990,-0.881367,15.433506,-2.48603
991,-1.044229,15.658638,-1.595083
992,-0.522114,15.670613,-1.722019
993,0.201182,15.510146,-1.971101
994,0.826282,14.650334,-2.488425
995,0.902922,13.263618,-3.456013
996,0.387993,11.797866,-4.253555
997,-0.160466,10.605146,-4.363726
998,-0.725691,9.448352,-3.523074
999,-1.003513,8.363408,-2.948269
1000,-0.797542,7.403005,-3.226091
1001,-0.124541,6.595884,-3.724255
1002,0.850232,5.906118,-3.978127
1003,1.848955,5.465435,-4.344565
1004,2.794988,5.178032,-4.86668
1005,3.178191,5.036726,-5.079836
1006,3.338657,4.931345,-4.560117
1007,3.288362,4.734954,-3.762576
1008,2.835703,4.397256,-3.283572
1009,2.201023,3.961362,-2.984194
1010,1.592688,3.537444,-2.502795
1011,1.044229,3.197351,-1.781895
1012,0.696951,2.878813,-1.137634
1013,0.866997,2.866838,-0.675396
1014,1.26457,3.561394,0.55804
1015,1.437012,4.584067,2.153123
1016,1.863325,6.08335,4.157754
1017,1.925596,7.884404,5.455854
1018,1.027463,9.074729,6.428232
1019,0.067061,9.740544,9.572893
1020,-0.543669,10.847043,12.3104
1021,-0.701741,12.703184,13.800103
1022,-1.281335,14.863491,13.584551
1023,-1.966311,16.60946,11.67572
1024,-0.404758,17.430952,11.258987
1025,3.06802,17.121995,13.919854
1026,4.979246,16.113691,16.312478
1027,5.721702,17.526753,10.739268
1028,6.231841,16.836987,2.272874
1029,7.326365,15.658638,-3.503914
1030,8.210127,10.892549,-4.184099
1031,7.498806,3.300337,-8.945398
1032,7.074888,-1.892065,-12.401411
1033,5.786367,-1.791475,-9.965676
1034,1.034648,3.836821,-9.987231
1035,-4.28469,10.890154,-10.98356
1036,-7.465276,15.958015,-8.037686
1037,-8.447234,17.373472,-3.606899
1038,-7.819739,15.069463,-1.415457
1039,-5.084626,11.067385,-1.204695
1040,-1.78908,8.322693,-1.499282
1041,1.829795,7.886799,-1.470542
1042,3.266807,8.035291,-0.936453
1043,2.878813,8.298743,-0.55804
1044,1.983076,8.698711,0.131726
1045,0.57241,9.1849,0.354463
1046,-0.752036,9.541758,-0.728086
1047,-1.18793,9.75252,-2.131567
1048,-1.037043,10.063872,-2.416575
1049,-0.764011,10.523716,-1.652563
1050,-0.622705,10.679392,-1.037043
1051,-0.890947,10.581196,-0.673
1052,-1.053809,10.051897,-0.301772
1053,-1.106499,9.515413,-0.670605
1054,-1.22146,9.038804,-1.664539
1055,-1.482517,8.507109,-2.869233
1056,-1.602268,8.241262,-3.472778
1057,-1.379531,8.289163,-3.094365
1058,-1.195115,9.010063,-2.4046
1059,-1.027463,9.917776,-1.434617
1060,-0.483794,10.547666,-0.134121
1061,0.217947,10.676997,0.471819
1062,0.883762,11.000325,0.58678
1063,1.058599,12.097244,0.184417
1064,1.132844,13.457615,0.249082
1065,0.795146,14.190491,0.474214
1066,0.193997,13.709092,0.716111
1067,-0.538879,12.827725,0.524509
1068,-0.517324,12.777429,1.238225
1069,-0.677791,13.47917,2.162703
1070,-1.693279,13.642031,2.311194
1071,-2.632126,13.699512,2.033372
1072,-3.09197,13.855188,1.908831
1073,-3.056045,13.891113,1.638193
1074,-2.306404,13.958174,0.895737
1075,-1.671724,13.816868,0.361648
1076,-1.266965,12.765454,0.457449
1077,-0.622705,11.749966,1.154399
1078,-0.208367,11.163186,2.668052
1079,-1.298101,11.747571,2.488425
1080,-3.046465,14.116245,2.246528
1081,-2.677632,13.936619,2.129172
1082,0.505349,12.470867,3.06802
1083,4.35175,12.236155,3.858376
1084,6.195916,13.117522,2.383044
1085,5.355264,13.848003,-0.735271
1086,3.791316,14.06116,-4.018843
1087,2.574646,14.420413,-5.913303
1088,2.177073,15.031143,-6.988667
1089,1.619033,15.665823,-6.495293
1090,0.627495,16.156802,-5.273833
1091,-1.017883,16.362773,-3.896697
1092,-2.541116,16.295713,-2.538721
1093,-3.391348,16.005916,-2.086062
1094,-2.598596,15.754438,-1.736389
1095,-0.65384,15.423926,-1.494492
1096,0.706531,13.917458,-2.488425
1097,1.22146,12.384646,-3.71707
1098,1.408271,11.000325,-4.543352
1099,1.23104,9.556128,-4.186494
1100,0.526904,8.064031,-3.523074
1101,-0.249082,6.622229,-3.271597
1102,-0.450264,5.860613,-3.412903
1103,0.011975,5.47741,-3.69312
1104,0.914897,5.041516,-4.004473
1105,1.908831,4.658313,-4.217629
1106,2.581831,4.291875,-4.433181
1107,2.900369,3.817661,-4.25116
1108,3.041675,3.439248,-3.63085
1109,3.027305,3.07281,-3.202141
1110,2.543511,2.907554,-2.677632
1111,1.78908,3.012935,-2.141147
1112,1.118474,3.336262,-1.585503
1113,0.656235,3.911067,-1.140029
1114,0.529299,4.622388,-0.845442
1115,0.864602,5.575605,-0.002395
1116,1.410667,6.631809,1.501677
1117,2.002236,8.018525,3.738625
1118,3.103945,9.539363,5.201982
1119,3.197351,10.41594,5.122947
1120,1.825005,10.013577,9.565708
1121,0.076641,9.975256,17.021404
1122,-0.203577,10.056687,14.429993
1123,-0.356858,11.393108,12.090059
1124,-1.087339,13.804893,11.395503
1125,-1.298101,16.456179,11.105706
1126,-0.469424,17.222585,11.02667
1127,2.426155,17.565073,12.439731
1128,5.839058,14.540164,7.692803
1129,8.238867,9.163345,-1.642983
1130,10.123748,5.589976,-3.762576
1131,9.625583,5.958809,-1.626218
1132,6.753955,11.496094,1.319656
1133,1.475332,15.831079,-0.201182
1134,-3.417693,15.323335,-1.659749
1135,-4.756509,11.340417,-6.004314
1136,-2.888394,6.849756,-7.695198
1137,-1.276545,5.51573,-6.591094
1138,-2.253713,6.284531,-7.419771
1139,-4.119434,7.462881,-10.006392
1140,-4.136199,8.830437,-7.831714
1141,-2.823728,10.099797,-3.954177
1142,-0.785566,11.04104,-2.023792
1143,2.44771,11.759546,-1.24062
1144,4.018843,11.096125,-1.056204
1145,3.130291,9.874666,-1.89925
1146,1.549578,8.938213,-2.201023
1147,0.055085,8.320298,-1.702859
1148,-1.26457,8.054451,-1.916016
1149,-1.834585,8.507109,-2.567461
1150,-1.892065,9.357341,-3.494333
1151,-1.499282,10.39678,-3.616479
1152,-0.838257,11.110496,-3.01533
1153,-0.182021,11.127261,-1.810635
1154,0.479004,10.432705,-0.735271
1155,0.716111,9.750125,-1.2023
1156,0.440684,9.201665,-2.624941
1157,0.162861,9.019644,-3.161426
1158,-0.093406,9.103469,-2.900369
1159,-0.225132,9.328601,-3.000959
1160,-0.193997,9.551338,-2.708767
1161,0.040715,9.980046,-2.016606
1162,0.299377,10.538086,-1.310076
1163,0.306563,10.969189,-0.675396
1164,0.069456,11.357183,-0.495769
1165,-0.069456,11.678115,-0.316143
1166,-0.232317,12.066108,0.04311
1167,-0.229922,12.724739,0.457449
1168,-0.479004,13.349839,1.087339
1169,-0.617915,13.347444,1.844165
1170,-0.356858,12.667258,2.672842
1171,-0.217947,12.044553,3.051255
1172,-0.845442,11.951147,2.622546
1173,-2.718347,12.279265,1.513652
1174,-4.682263,12.389436,0.754431
1175,-4.974456,12.454102,1.171165
1176,-4.591252,12.87323,1.18314
1177,-4.059558,12.590618,0.352068
1178,-2.608176,11.874507,0.263452
1179,-0.450264,11.309282,1.295706
1180,1.422642,11.242222,2.744692
1181,2.445315,11.541599,3.64522
1182,2.308799,11.994258,2.670447
1183,1.271755,13.965359,3.278782
1184,0.617915,14.394067,3.606899
1185,1.441802,13.941409,2.763853
1186,2.687212,13.495935,0.804727
1187,2.732717,13.924644,-1.652563
1188,1.638193,14.243181,-4.212839
1189,0.878972,14.053975,-5.151687
1190,0.579595,14.310242,-4.931345
1191,-0.02395,14.659915,-5.094207
1192,-1.441802,14.873071,-4.208049
1193,-2.598596,15.244299,-2.703977
1194,-3.297942,15.184424,-1.652563
1195,-3.321892,14.949712,-1.892065
1196,-1.963916,14.66231,-2.658472
1197,-0.60594,14.386882,-2.830913
1198,0.56762,13.543835,-3.353027
1199,1.84177,12.590618,-3.805686
1200,2.948269,11.735596,-4.26553
1201,3.357817,10.691367,-4.737349
1202,3.314707,9.788445,-5.000801
1203,3.273992,8.897498,-5.034331
1204,3.242856,8.416099,-4.593647
1205,3.216511,8.028105,-4.390071
1206,3.11113,7.644902,-4.449946
1207,2.969824,7.247329,-4.35175
1208,2.747087,6.885681,-3.980522
1209,2.610571,6.79467,-3.844006
1210,2.541116,6.6845,-3.760181
1211,2.653682,6.361172,-3.408113
1212,2.787803,5.748047,-3.329077
1213,2.270479,4.87626,-2.878813
1214,1.743574,3.891907,-2.306404
1215,1.353186,3.839216,-2.126777
1216,0.979563,4.428391,-0.447869
1217,0.754431,5.101392,1.999841
1218,1.087339,5.798342,4.502637
1219,1.568738,6.11688,5.372029
1220,1.863325,6.591094,5.079836
1221,1.971101,7.216194,3.64522
1222,2.239343,7.99697,2.521956
1223,2.586621,8.993298,2.955454
1224,2.838098,10.128538,4.912185
1225,2.440525,11.654165,7.740703
1226,1.513652,13.191768,8.356223
1227,0.704136,14.300662,8.083191
1228,0.222737,15.36884,7.802974
1229,0.481399,15.670613,8.090376
1230,1.219065,14.765295,8.181387
1231,1.913621,12.2625,6.926396
1232,2.397415,9.865085,5.309758
1233,3.118315,7.450906,4.002078
1234,3.496729,6.459368,2.383044
1235,3.0776,5.932463,0.421523
1236,1.405876,5.733677,-1.365161
1237,0.179626,7.767048,-2.859653
1238,0.538879,12.456497,-2.617756
1239,1.935176,18.199753,-0.395178
1240,2.282454,19.619401,1.353186
1241,1.980681,19.071541,1.214275
1242,3.367397,14.422808,-0.443079
1243,4.526587,9.465117,-1.777104
1244,4.160149,5.680986,-2.440525
1245,2.445315,3.791316,-2.981799
1246,0.143701,3.551814,-3.853586
1247,-2.356699,4.780459,-4.459526
1248,-4.734954,7.256909,-4.152964
1249,-6.437813,10.202783,-3.247646
1250,-6.413862,12.724739,-1.920806
1251,-4.612808,14.190491,-0.251477
1252,-2.850073,13.747412,0.222737
1253,-1.580713,12.176279,-0.455054
1254,-0.720901,10.308164,-0.991538
1255,0.213157,9.206455,-1.072969
1256,0.840652,8.576565,-0.996328
1257,1.21188,8.914263,-1.159189
1258,1.140029,10.087822,-1.398691
1259,0.866997,11.120076,-1.288521
1260,0.58678,11.584709,-1.17356
1261,0.359253,11.486514,-0.63468
1262,0.416733,10.923684,-0.205972
1263,0.421523,10.236313,-0.174836
1264,0.205972,9.718989,-0.512534
1265,-0.229922,9.520203,-0.993933
1266,-0.735271,9.484277,-1.372346
1267,-1.281335,9.491462,-1.551973
1268,-1.681304,9.623188,-1.24062
1269,-1.722019,9.82437,-0.874182
1270,-1.302891,10.049502,-0.950823
1271,-0.646655,10.020762,-1.005908
1272,-0.095801,9.81,-0.984353
1273,0.150886,9.754915,-0.869392
1274,0.201182,10.049502,-0.953218
1275,0.150886,10.427915,-1.16877
1276,0.289797,10.547666,-1.266965
1277,0.486189,10.492581,-1.324446
1278,0.498164,10.277029,-1.631008
1279,0.397573,10.181228,-2.057322
1280,0.256267,10.219548,-2.088457
1281,-0.045505,10.128538,-2.229763
1282,-0.220342,10.111772,-2.220183
1283,-0.407153,10.011182,-2.268083
1284,-0.332908,10.006392,-2.325564
1285,-0.117356,10.250684,-2.184258
1286,0.158071,10.557246,-1.896855
1287,0.205972,10.595566,-1.587898
1288,-0.285007,10.308164,-1.080154
1289,-0.565225,10.588381,-1.223855
1290,-0.998723,10.784773,-1.147214
1291,-1.068179,10.550061,-1.154399
1292,-1.013093,10.186018,-1.355581
1293,-0.730481,9.922566,-1.820215
1294,-0.325723,9.946516,-2.268083
1295,-0.00958,10.001602,-2.169888
1296,0.335303,10.121353,-2.026187
1297,0.366438,10.090217,-2.145938
1298,0.205972,9.896221,-1.978286
1299,0.062271,9.77168,-1.690884
1300,0.229922,9.78126,-2.014211
1301,0.196392,9.707014,-2.572251
1302,0.114961,9.654324,-2.809358
1303,-0.074246,9.75731,-2.802173
1304,-0.069456,10.020762,-2.498005
1305,-0.059875,10.147698,-2.306404
1306,0.011975,10.150093,-2.258503
1307,0.093406,10.123748,-2.256108
1308,0.234712,10.049502,-2.184258
1309,0.435894,10.030342,-1.844165
1310,0.656235,10.209968,-1.472937
1311,0.747246,10.351274,-1.295706
1312,0.938848,10.588381,-1.24062
1313,1.185535,10.619517,-0.912502
1314,1.408271,10.47821,-0.929268
1315,1.628613,10.44468,-0.888552
1316,1.698069,10.286609,-0.725691
1317,1.623823,10.310559,-0.469424
1318,1.525627,10.447075,-0.495769
1319,1.348396,10.612332,-0.661025
1320,1.128054,10.823093,-1.010698
1321,1.058599,10.894944,-1.084944
