frame,acc x,acc y,acc z
588,0.095801,10.861414,0.775986
589,0.196392,10.938054,0.826282
590,0.359253,10.990745,1.015488
591,0.514929,11.134446,1.19751
592,0.62031,11.103311,1.28373
593,0.689766,11.117681,1.357976
594,0.66821,11.148816,1.422642
595,0.617915,11.275752,1.516047
596,0.428708,11.306887,1.609453
597,0.316143,11.309282,1.85614
598,0.292192,11.213481,1.918411
599,0.359253,10.995535,2.153123
600,0.234712,10.959609,2.323169
601,0.198787,10.763218,2.450105
602,0.289797,10.763218,2.529141
603,0.045505,10.669812,2.732717
604,0.059875,10.574011,2.692002
605,0.0,10.485396,2.751877
606,-0.179626,10.332114,2.878813
607,-0.205972,10.135723,2.909949
608,-0.423918,9.80521,3.226091
609,-0.483794,9.632769,3.353027
610,-0.598755,9.378896,3.489543
611,-0.720901,9.086704,3.496729
612,-0.694556,8.911868,3.537444
613,-0.730481,8.758586,3.525469
614,-0.61552,8.770562,3.350632
615,-0.574805,8.758586,3.041675
616,-0.419128,8.804092,2.730322
617,-0.205972,8.981323,2.699187
618,-0.05748,8.988508,2.560276
619,-0.05748,8.988508,2.560276
620,0.328118,8.5598,2.48124
621,0.380808,8.320298,2.600991
622,0.287402,8.054451,2.692002
623,0.093406,7.843689,2.838098
624,-0.079036,7.735913,2.996169
625,-0.265847,7.807764,3.293152
626,-0.378413,7.802974,3.441643
627,-0.462239,7.850874,3.609294
628,-0.519719,7.781418,3.805686
629,-0.443079,7.697593,3.808081
630,-0.352068,7.750283,3.903882
631,-0.177231,7.893984,4.064348
632,-0.04311,8.02571,4.033213
633,0.00479,8.044871,4.095483
634,-0.0479,8.119116,4.107458
635,-0.119751,8.212522,4.100273
636,-0.263452,8.363408,4.078718
637,-0.373623,8.528665,4.143384
638,-0.57241,8.784932,4.344565
639,-0.718506,9.144185,4.567302
640,-0.816702,9.481882,4.988826
641,-0.840652,9.872271,5.319338
642,-0.914897,10.047107,5.441484
643,-1.041833,10.003997,5.381609
644,-1.080154,9.869875,5.434299
645,-1.020278,9.745334,5.357659
646,-1.010698,9.570498,5.309758
647,-1.008303,9.426797,5.357659
648,-0.991538,9.266331,5.221143
649,-0.986748,9.019644,5.146897
650,-0.960403,8.787327,5.072651
651,-0.871787,8.514294,5.053491
652,-0.646655,8.473579,4.907395
653,-0.531694,8.53106,4.670288
654,-0.210762,8.679551,4.459526
655,0.00958,8.832832,4.29427
656,0.239502,9.017249,4.25116
657,0.320933,9.235195,4.069138
658,0.265847,9.481882,3.982917
659,-0.035925,9.544153,3.846401
660,-0.433499,9.608818,3.879932
661,-1.065784,10.154883,4.387676
662,-1.573528,10.825488,4.634363
663,-1.930386,11.766731,4.991221
664,-2.191443,12.851675,5.599556
665,-2.270479,13.333074,5.53968
666,-2.093247,13.182188,5.348079
667,-1.738784,12.434941,5.209167
668,-1.458567,11.076965,4.94811
669,-1.408271,8.933423,4.296665
670,-1.346001,7.079678,3.836821
671,-1.080154,5.795947,3.570974
672,-0.895737,5.460645,3.700305
673,-1.025068,5.922883,3.700305
674,-1.233435,7.079678,2.979404
675,-1.348396,8.701106,2.318379
676,-1.003513,10.329719,1.774709
677,-0.495769,11.541599,1.26936
678,0.136516,11.910432,1.094524
679,0.785566,11.369158,1.504072
680,1.281335,10.298584,2.375859
681,1.458567,9.22801,2.48124
682,0.989143,8.471184,1.801055
683,0.174836,8.037686,0.981958
684,-0.785566,7.92512,0.574805
685,-0.914897,8.145461,0.677791
686,-0.371228,8.693921,1.130449
687,0.486189,9.18011,1.480122
688,1.647773,9.764495,1.753154
689,2.766248,10.049502,1.597478
690,3.147056,10.035132,1.506467
691,3.118315,9.999207,1.695674
692,2.699187,9.908196,1.85614
693,2.191443,9.82916,1.913621
694,1.671724,9.76689,1.815425
695,1.463357,9.697434,1.448987
696,1.410667,9.558523,1.027463
697,1.487307,9.465117,0.550854
698,1.549578,9.493857,0.256267
699,1.525627,9.692644,0.155676
700,1.384321,9.905801,0.081431
701,1.144819,10.126143,0.093406
702,0.823887,10.238708,0.251477
703,0.689766,10.138118,0.361648
704,0.416733,9.901011,0.462239
705,0.237107,9.759705,0.476609
706,-0.002395,9.663904,0.560435
707,-0.134121,9.831555,0.61552
708,-0.170046,10.188413,0.749641
709,-0.215552,10.423125,0.656235
710,-0.323328,10.509346,0.723296
711,-0.380808,10.312954,0.775986
712,-0.268242,10.068662,1.101709
713,-0.03832,9.84353,1.017883
714,0.244292,9.793235,1.120869
715,0.395178,10.190808,0.778381
716,0.534089,10.626702,0.584385
717,0.543669,10.947634,0.66821
718,0.555645,10.952424,0.799937
719,0.692161,10.490186,0.670605
720,0.692161,10.490186,0.670605
721,1.23104,10.502161,0.126936
722,1.571133,11.067385,-0.162861
723,1.987866,11.69967,-0.229922
724,2.550696,11.831396,-0.119751
725,2.996169,11.611055,0.03353
726,3.266807,11.541599,-0.098196
727,3.250042,11.800261,-0.05748
728,3.168611,11.996653,0.56283
729,3.008145,11.716436,1.070574
730,2.993774,11.328442,1.78908
731,3.305127,11.673325,2.759063
732,3.748206,12.535532,3.216511
733,3.496729,13.390554,2.766248
734,2.397415,13.364209,2.148333
735,1.307681,12.336746,1.786685
736,0.843047,11.431428,1.805845
737,0.65384,11.261382,1.85614
738,0.203577,11.582314,2.050137
739,-0.380808,11.781101,2.124382
740,-1.072969,11.831396,2.586621
741,-1.585503,11.793076,2.941084
742,-1.508862,11.64698,2.569856
743,-1.094524,11.625425,2.181863
744,-0.399968,12.480447,1.729204
745,0.146096,13.519885,1.243015
746,0.64905,14.437178,0.711321
747,1.219065,14.688655,0.323328
748,1.504072,14.305452,0.114961
749,1.025068,13.378579,-0.234712
750,0.677791,12.964241,-0.512534
751,0.747246,12.808564,-0.373623
752,1.051414,12.576248,0.275427
753,1.906436,11.857742,-0.445474
754,1.717229,10.753638,0.011975
755,2.263293,9.695039,-0.696951
756,2.43334,8.485554,-0.440684
757,2.289639,7.256909,-0.234712
758,1.681304,6.456973,0.227527
759,0.780776,5.858218,0.61552
760,-0.155676,5.551655,1.039438
761,-1.003513,5.45825,1.499282
762,-1.659749,5.448669,1.79387
763,-2.002236,5.551655,1.877695
764,-2.007026,5.54926,1.844165
765,-1.85135,5.427114,1.741179
766,-1.654958,5.326523,1.587898
767,-1.295706,5.326523,1.314866
768,-0.967588,5.381609,1.051414
769,-0.775986,5.513335,0.929268
770,-0.651445,5.532495,0.936453
771,-0.371228,5.645061,1.209485
772,-0.095801,5.724097,1.645378
773,0.059875,5.589976,2.387834
774,0.294587,5.771997,3.762576
775,0.538879,6.368357,6.028264
776,0.61073,7.726333,8.171807
777,0.354463,9.778865,9.505833
778,0.543669,12.090059,9.374106
779,1.554368,13.955779,8.713081
780,2.771038,14.808406,7.781418
781,3.432063,14.846726,6.68929
782,2.751877,14.777271,6.332432
783,0.864602,14.243181,6.370752
784,-1.604663,13.934224,7.031777
785,-4.311035,14.74853,7.441326
786,-5.206772,14.693445,5.848638
787,-3.460803,13.558206,6.600674
788,-1.868115,11.098521,6.571934
789,-0.831072,8.322693,5.089417
790,0.007185,5.783972,2.701582
791,0.953218,4.24637,-0.095801
792,1.518442,4.047583,-0.162861
793,1.468147,4.694238,-0.438289
794,1.85135,6.650969,-0.881367
795,1.930386,9.508228,-0.704136
796,1.714834,11.989468,-0.467029
797,0.883762,13.060042,-0.965193
798,0.148491,12.753479,-1.104104
799,-0.404758,11.467354,-0.60594
800,-0.423918,9.697434,-0.227527
801,0.273032,8.339458,0.244292
802,0.831072,7.685618,0.807122
803,0.831072,7.635322,1.530417
804,0.174836,8.260422,2.071692
805,-0.507744,8.902288,2.536326
806,-0.967588,9.647139,2.802173
807,-1.166375,10.106982,2.986589
808,-0.996328,10.102192,2.912344
809,-0.213157,9.793235,2.402205
810,0.423918,9.453142,1.908831
811,1.084944,9.196875,1.348396
812,1.631008,9.24238,1.19751
813,1.990261,9.326206,0.797542
814,2.210603,9.381292,0.435894
815,2.344724,9.307046,0.268242
816,2.46208,9.22322,0.155676
817,2.629731,9.19927,0.114961
818,2.615361,9.304651,0.064666
819,2.572251,9.460327,0.162861
820,2.208208,9.75252,0.416733
821,1.700464,10.011182,0.737666
822,1.281335,10.238708,0.958008
823,0.826282,10.4351,1.116079
824,0.450264,10.530901,1.324446
825,-0.01916,10.380015,1.432222
826,-0.546064,10.095007,1.559158
827,-0.986748,10.174043,1.930386
828,-1.470542,9.860295,2.512375
829,-1.604663,9.81479,3.226091
830,-1.578318,9.728569,3.228486
831,-1.360371,9.807605,2.778223
832,-1.025068,9.836345,1.82261
833,-0.505349,9.84832,0.58199
834,0.275427,9.733359,-0.342488
835,1.621428,9.730964,-0.902922
836,3.467988,10.384805,-1.439407
837,5.400769,11.225457,-1.599873
838,6.895261,11.771521,-1.420247
839,7.33834,11.819421,-0.646655
840,7.115603,11.740386,0.304167
841,6.77072,12.475657,1.480122
842,6.588699,14.437178,2.598596
843,6.143225,16.386724,3.446433
844,4.84752,16.535215,4.483477
845,3.159031,15.493381,4.787644
846,1.271755,14.549744,4.782854
847,-0.828677,14.08032,4.018843
848,-2.737507,14.149775,3.786526
849,-4.445156,14.164146,4.143384
850,-5.384004,13.800103,4.334985
851,-5.314548,12.866045,3.587739
852,-4.711003,11.817026,2.052532
853,-4.148174,11.70446,0.720901
854,-3.623665,12.480447,-0.58678
855,-2.680027,13.699512,-0.986748
856,-1.19272,14.942527,-0.495769
857,0.459844,15.258669,-0.01916
858,1.745969,14.425203,-0.268242
859,2.931504,12.990586,-0.958008
860,4.232,11.896062,-1.619033
861,4.373306,10.205178,-1.302891
862,4.969666,9.053174,-2.289639
863,5.625901,8.181387,-2.50519
864,5.726492,7.630532,-2.751877
865,5.419929,7.175479,-2.771038
866,4.813989,6.691685,-2.526746
867,3.506309,6.207891,-1.695674
868,1.89446,6.016289,-0.689766
869,0.177231,5.884563,0.167651
870,-1.23583,5.788762,1.106499
871,-2.4525,5.570815,1.566343
872,-3.254832,5.338499,1.908831
873,-3.62606,5.158872,1.89446
874,-3.547024,5.019961,2.009421
875,-3.362607,5.082231,2.143542
876,-3.228486,5.273833,1.85135
877,-3.022515,5.52052,1.496887
878,-2.598596,5.781577,1.310076
879,-1.944756,6.327642,1.722019
880,-1.470542,6.68929,2.184258
881,-1.25499,7.012617,3.144661
882,-1.099314,7.436536,4.902605
883,-0.936453,8.159832,7.824529
884,-0.728086,9.465117,10.533296
885,-0.440684,10.911709,10.676997
886,0.972378,12.420571,9.22322
887,3.614084,13.280383,6.981482
888,5.812712,13.618081,4.893025
889,6.825806,14.327007,4.232
890,6.401887,14.578484,4.059558
891,4.24158,13.725857,4.143384
892,1.049019,13.009746,6.15999
893,-1.908831,13.562996,8.114326
894,-3.614084,13.395344,5.913303
895,-3.240461,12.013418,4.521797
896,-2.581831,9.613608,4.425996
897,-3.022515,7.537126,4.24158
898,-3.918252,5.537285,2.701582
899,-3.779341,5.230723,1.88009
900,-2.663262,6.095325,2.040557
901,-1.032253,6.852151,0.469424
902,0.55804,8.375383,-0.716111
903,1.702859,10.274634,-1.448987
904,2.098037,11.127261,-2.931504
905,1.892065,11.208691,-3.772156
906,1.336421,10.638677,-3.075205
907,0.704136,9.733359,-2.033372
908,0.474214,8.899893,-1.420247
909,0.701741,8.5598,-0.57241
910,1.068179,8.808882,0.325723
911,1.27894,9.20885,1.678909
912,0.967588,9.692644,2.246528
913,0.114961,9.987231,2.680027
914,-0.64426,10.272239,3.07281
915,-1.140029,10.432705,2.862048
916,-1.065784,10.38241,2.222578
917,-0.699346,10.277029,1.393901
918,-0.165256,10.118958,0.66342
919,0.488584,9.886641,0.452659
920,1.142424,9.733359,0.256267
921,1.939966,9.577683,0.083826
922,2.677632,9.467512,-0.311353
923,3.103945,9.429192,-0.62989
924,3.381768,9.472302,-0.785566
925,3.62127,9.553733,-0.938848
926,3.616479,9.659114,-1.111289
927,3.297942,9.738149,-0.950823
928,2.665657,9.78605,-0.493374
929,1.973496,9.83395,-0.203577
930,1.381926,9.75731,0.330513
931,0.948428,9.735754,0.895737
932,0.376018,9.546548,1.322051
933,-0.158071,9.386082,1.796265
934,-0.467029,9.338181,2.150728
935,-0.723296,9.642349,2.198628
936,-0.804727,9.8579,2.260898
937,-0.828677,10.128538,2.229763
938,-0.536484,10.138118,1.810635
939,0.215552,9.982441,1.087339
940,0.958008,9.917776,0.531694
941,2.030977,9.874666,-0.0479
942,3.295547,10.205178,-0.684976
943,4.454736,10.535691,-0.862207
944,5.221143,11.019485,-1.039438
945,5.144502,11.342813,-1.147214
946,4.311035,11.515254,-0.938848
947,2.806963,11.412268,-0.407153
948,1.453777,11.199111,0.474214
949,0.807122,11.09373,1.559158
950,1.195115,11.711646,2.866838
951,2.572251,13.529465,3.614084
952,4.107458,16.025076,3.705095
953,4.490662,17.007034,3.750601
954,3.618875,16.374749,3.094365
955,1.640588,15.138918,2.181863
956,-0.893342,13.764177,1.410667
957,-0.893342,13.764177,1.410667
958,-4.464316,12.25771,2.773433
959,-4.617598,12.133169,4.169729
960,-4.028423,11.536809,4.32301
961,-3.376978,11.086545,3.506309
962,-2.50519,11.601475,2.323169
963,-1.580713,13.124707,1.046624
964,-0.538879,14.635964,-0.419128
965,0.450264,15.431111,-1.353186
966,1.633403,15.579602,-1.472937
967,2.224973,14.760505,-1.633403
968,2.572251,13.194163,-2.011816
969,2.572251,13.194163,-2.011816
970,2.914739,11.69967,-2.184258
971,3.805686,9.714199,-2.45729
972,4.660708,9.187295,-3.07281
973,4.239185,8.689131,-2.366279
974,4.33738,8.329878,-2.368674
975,4.119434,7.807764,-1.314866
976,3.187771,7.197034,-0.5772
977,1.722019,6.75635,0.04311
978,0.227527,6.303691,0.687371
979,-1.140029,5.841453,1.046624
980,-2.246528,5.661826,1.233435
981,-2.835703,5.546865,1.281335
982,-2.962639,5.54926,1.281335
983,-2.878813,5.697751,1.425037
984,-2.677632,5.894143,1.456172
985,-2.356699,6.325247,1.357976
986,-2.141147,6.691685,0.900527
987,-1.85135,6.859336,0.313748
988,-1.405876,6.782695,-0.00479
989,-0.687371,6.725215,-0.119751
990,-0.325723,6.603069,0.316143
991,-0.150886,6.332432,1.185535
992,0.03832,6.397097,2.632126
993,0.203577,7.34792,5.750442
994,0.083826,10.566826,11.182346
995,-0.455054,13.50312,11.654165
996,-0.205972,14.652729,8.157437
997,1.81782,14.408438,5.834268
998,3.841611,13.883928,6.353987
999,3.69312,13.996494,7.094048
1000,2.330354,13.697117,7.606582
1001,-0.01437,12.801379,7.098838
1002,-2.914739,11.371553,6.181545
1003,-5.410349,10.037527,3.877537
1004,-5.163662,9.15616,2.098037
1005,-3.154241,8.851992,2.100432
1006,-0.63468,8.818462,2.5004
1007,1.298101,8.643625,2.816543
1008,2.421365,8.52627,1.911226
1009,3.173401,8.657996,0.744851
1010,3.441643,9.330996,-0.055085
1011,3.036885,10.097402,-1.147214
1012,2.136357,10.571616,-1.477727
1013,1.056204,10.581196,-1.25499
1014,-0.086221,10.267449,-0.469424
1015,-1.24541,9.723779,0.062271
1016,-2.088457,9.069939,0.294587
1017,-2.42376,8.483159,0.65384
1018,-1.973496,8.387358,1.075364
1019,-0.946033,8.782537,1.372346
1020,-0.299377,9.18969,2.229763
1021,1.111289,9.649534,2.222578
1022,2.155518,10.095007,1.159189
1023,1.978286,10.442285,0.759221
1024,1.84656,10.648257,1.652563
1025,1.513652,10.427915,1.638193
1026,1.298101,9.85311,1.422642
1027,1.329236,9.582473,0.893342
1028,1.334026,9.553733,0.282612
1029,1.528022,9.623188,-0.045505
1030,1.810635,9.788445,-0.114961
1031,2.184258,9.929751,-0.237107
1032,2.572251,9.881851,-0.574805
1033,2.852468,9.83874,-0.711321
1034,3.017725,9.707014,-0.723296
1035,2.768643,9.759705,-0.66342
1036,2.454895,9.865085,-0.438289
1037,1.760339,9.817185,-0.03832
1038,0.979563,9.817185,0.438289
1039,0.435894,9.84353,1.070574
1040,-0.02395,9.77647,1.535208
1041,-0.201182,9.582473,1.820215
1042,-0.344883,9.323811,1.834585
1043,-0.244292,9.132209,1.611848
1044,-0.00958,9.15137,1.26936
1045,0.241897,9.496252,1.037043
1046,0.560435,9.977651,0.929268
1047,0.792751,10.36804,1.159189
1048,0.881367,10.46863,1.367556
1049,0.759221,10.308164,1.175955
1050,0.680186,10.066267,0.766406
1051,0.826282,10.171648,0.632285
1052,1.28373,10.487791,0.526904
1053,1.932781,10.803933,0.476609
1054,2.809358,10.99314,0.285007
1055,3.439248,11.053015,0.196392
1056,4.172124,11.112891,0.246687
1057,4.471501,11.242222,0.294587
1058,4.220024,11.400293,0.435894
1059,3.539839,11.357183,1.120869
1060,3.211721,11.364368,1.987866
1061,3.312312,12.102034,2.955454
1062,3.477568,13.570181,3.793711
1063,2.941084,13.924644,3.891907
1064,1.872905,13.076807,2.929109
1065,0.984353,12.789404,1.89925
1066,0.03353,12.909155,1.810635
1067,-0.833467,13.227693,1.925596
1068,-1.568738,13.718672,1.551973
1069,-1.568738,13.718672,1.551973
1070,-2.440525,13.639636,1.621428
1071,-3.11113,12.255315,1.978286
1072,-2.531536,11.316467,1.84656
1073,-1.85614,11.06499,1.575923
1074,-1.432222,11.505674,0.998723
1075,-0.943638,12.384646,0.464634
1076,-0.464634,13.215718,0.249082
1077,0.232317,13.998889,0.215552
1078,1.118474,14.16175,0.316143
1079,1.887275,13.692327,0.110171
1080,2.694397,12.89718,-0.526904
1081,3.202141,12.061318,-0.929268
1082,3.71228,6.076165,2.201023
1083,3.946992,11.258987,-5.372029
1084,3.618875,10.269844,-2.371069
1085,3.273992,9.381292,-1.310076
1086,2.507585,8.463999,-0.869392
1087,1.872905,7.848479,-0.785566
1088,1.530417,7.261699,-0.814307
1089,0.838257,6.895261,-0.464634
1090,-0.02395,6.653364,0.174836
1091,-0.740061,6.576724,0.764011
1092,-1.448987,6.447393,1.312471
1093,-1.810635,6.152805,1.384321
1094,-1.750759,5.980364,1.334026
1095,-1.707649,5.989944,1.288521
1096,-1.628613,6.054609,1.123264
1097,-1.501677,6.368357,1.106499
1098,-1.310076,6.662944,1.010698
1099,-0.950823,6.904841,0.833467
1100,-0.443079,7.137158,0.804727
1101,0.074246,7.36708,0.962798
1102,0.234712,7.39103,1.434617
1103,0.292192,7.446116,2.344724
1104,0.067061,7.707173,4.028423
1105,-0.261057,8.475974,6.248606
1106,-0.828677,9.972861,8.267607
1107,-1.084944,11.955938,8.475974
1108,-0.299377,13.347444,6.847361
1109,1.142424,14.111455,5.690566
1110,2.694397,13.783337,4.703818
1111,3.561394,12.966636,4.026028
1112,3.628455,12.21939,4.160149
1113,2.806963,11.407478,4.543352
1114,0.843047,10.399175,5.108577
1115,-0.759221,9.920171,5.997129
1116,-2.454895,10.133328,6.456973
1117,-3.561394,10.126143,3.815266
1118,-3.832031,9.79084,2.081272
1119,-3.336262,8.902288,2.469265
1120,-2.663262,8.842412,2.943479
1121,-1.84656,9.21364,3.877537
1122,-1.032253,9.788445,4.045188
1123,0.543669,10.547666,2.747087
1124,2.926714,10.947634,1.937571
1125,4.581672,10.911709,0.852627
1126,4.708608,10.308164,-0.421523
1127,2.991379,9.570498,-1.381926
1128,0.694556,8.904683,-1.516047
1129,-1.003513,8.380173,-1.408271
1130,-2.236948,7.922725,-1.23104
1131,-2.900369,7.767048,-0.55804
1132,-2.761458,8.155042,0.093406
1133,-1.341211,9.369316,1.003513
1134,0.708926,10.607542,1.923201
1135,2.840493,11.369158,1.863325
1136,3.879932,11.445798,0.797542
1137,3.08718,11.139236,0.823887
1138,1.654958,10.892549,2.189048
1139,0.323328,10.341694,2.46687
1140,-0.275427,9.76689,2.098037
1141,-0.390388,9.354946,1.587898
1142,-0.253872,9.304651,1.154399
1143,0.165256,9.735754,0.64905
1144,0.740061,10.233918,0.246687
1145,1.271755,10.566826,-0.081431
1146,1.84177,10.736873,-0.450264
1147,2.165098,10.612332,-0.63468
1148,2.330354,10.41594,-0.560435
1149,2.263293,10.291399,-0.60594
1150,2.035767,10.221943,-0.440684
1151,1.563948,10.207573,-0.184417
1152,1.125659,10.140513,0.134121
1153,0.641865,10.078242,0.464634
1154,0.524509,9.977651,0.766406
1155,0.526904,9.84832,0.833467
1156,0.713716,9.82437,0.749641
1157,0.871787,9.812395,0.735271
1158,0.974773,9.951306,0.816702
1159,0.922083,10.109377,0.950823
1160,0.898132,10.152488,1.118474
1161,0.752036,10.044712,1.338816
1162,0.761616,9.910591,1.420247
1163,1.003513,9.81479,1.128054
1164,1.384321,9.920171,0.783171
1165,1.678909,10.042317,0.435894
1166,2.066902,10.209968,0.261057
1167,2.280059,10.43989,0.114961
1168,2.406995,10.574011,0.076641
1169,2.248923,10.566826,-0.021555
1170,1.949546,10.408755,-0.098196
1171,1.949546,10.408755,-0.098196
1172,1.647773,10.207573,0.002395
1173,1.496887,10.281819,0.641865
1174,1.393901,10.557246,0.706531
1175,1.243015,10.734478,0.687371
1176,1.132844,10.914104,0.63947
1177,1.039438,10.926079,0.701741
1178,0.912502,10.703342,0.756826
1179,0.754431,10.370435,0.926873
1180,0.732876,10.164463,1.106499
1181,0.771196,10.322534,1.271755
1182,0.984353,10.547666,1.355581
1183,1.111289,10.684182,1.185535
1184,1.343606,10.583591,0.843047
1185,1.78429,10.403965,0.737666
1186,2.277664,10.356064,0.536484
1187,2.565066,10.269844,0.411943
1188,2.842888,10.389595,0.447869
1189,2.761458,10.502161,0.191602
1190,2.42376,10.657837,0.03353
1191,1.853745,10.576406,-0.155676
1192,1.28373,10.39199,-0.328118
1193,0.740061,10.312954,-0.256267
1194,0.364043,10.45426,0.378413
1195,0.170046,10.494976,0.651445
1196,-0.110171,10.554851,0.637075
1197,-0.55804,10.36804,0.766406
1198,-1.044229,10.205178,1.070574
1199,-1.456172,10.126143,1.17835
1200,-1.662144,9.898616,0.977168
1201,-1.585503,9.740544,0.531694
1202,-1.319656,9.807605,0.191602
1203,-1.058599,10.047107,-0.122146
1204,-0.790356,10.257869,-0.555645
1205,-0.402363,10.540481,-0.744851
1206,-0.05748,10.923684,-0.845442
1207,0.467029,11.290122,-0.929268
1208,1.013093,11.529624,-0.883762
1209,1.501677,11.357183,-0.684976
1210,1.990261,11.098521,-0.356858
1211,2.076482,10.729688,-0.342488
1212,1.906436,10.602751,-0.63947
1213,1.676514,10.837463,-0.931663
1214,1.369951,11.187136,-0.898132
1215,0.965193,11.223062,-0.476609
1216,0.378413,10.892549,-0.134121
1217,-0.167651,10.329719,0.124541
1218,-0.58199,9.82437,0.107776
1219,-1.015488,9.445957,0.093406
1220,-1.314866,9.297466,0.05748
1221,-1.446592,9.383687,0.05748
1222,-1.475332,9.551338,0.114961
1223,-1.465752,9.697434,0.143701
1224,-1.302891,9.671089,0.0479
1225,-1.060994,9.515413,-0.095801
1226,-0.807122,9.287886,-0.174836
1227,-0.536484,9.072334,-0.407153
1228,-0.320933,8.998088,-0.462239
1229,-0.170046,9.089099,-0.447869
1230,-0.04311,9.148975,-0.416733
1231,0.100591,9.23759,-0.313748
1232,0.021555,9.304651,-0.165256
1233,-0.184417,9.426797,0.040715
1234,-0.273032,9.611213,0.249082
1235,-0.313748,9.783655,0.253872
1236,-0.323328,9.877061,0.239502
1237,-0.404758,9.896221,0.205972
1238,-0.488584,9.82916,0.337698
1239,-0.510139,9.85311,0.517324
1240,-0.419128,9.886641,0.735271
1241,-0.440684,10.030342,1.099314
1242,-0.510139,10.042317,1.448987
1243,-0.706531,9.994417,1.487307
1244,-0.843047,9.929751,1.379531
1245,-0.732876,10.123748,1.046624
1246,-0.256267,10.583591,0.732876
1247,0.347278,11.318862,0.481399
1248,0.713716,12.197834,0.244292
1249,0.780776,12.499607,0.282612
1250,0.488584,11.999048,0.383203
1251,0.007185,10.957214,0.138911
1252,-0.335303,9.869875,-0.821492
1253,-0.450264,9.057964,-1.568738
1254,-0.253872,8.653206,-2.248923
1255,-0.03353,8.662786,-2.953059
