frame,acc x,acc y,acc z
1218,0.522114,10.475815,-1.942361
1219,0.519719,10.736873,-1.987866
1220,0.531694,10.966794,-1.767524
1221,0.488584,11.199111,-1.652563
1222,0.483794,11.352393,-1.551973
1223,0.445474,11.565549,-1.302891
1224,0.265847,11.747571,-1.060994
1225,0.167651,11.864927,-0.943638
1226,-0.00479,12.051738,-0.740061
1227,-0.227527,12.23376,-0.541274
1228,-0.507744,12.535532,-0.318538
1229,-0.756826,12.767849,-0.136516
1230,-0.938848,13.086387,0.170046
1231,-1.195115,13.328284,0.538879
1232,-1.501677,13.515095,1.132844
1233,-1.549578,13.574971,1.731599
1234,-1.348396,13.292358,1.983076
1235,-1.288521,12.806169,1.947151
1236,-1.082549,12.791799,2.241738
1237,-0.651445,13.539045,3.046465
1238,-0.395178,13.416899,2.39502
1239,-0.337698,11.256592,0.512534
1240,-0.05748,8.739426,-1.080154
1241,0.01437,7.688013,-1.647773
1242,-0.091011,8.310718,-1.281335
1243,0.124541,9.604028,-1.010698
1244,0.392783,10.643467,-1.432222
1245,0.66821,11.306887,-2.294429
1246,1.020278,11.366763,-2.493215
1247,1.379531,10.736873,-2.141147
1248,1.78908,9.917776,-2.141147
1249,1.975891,8.897498,-1.930386
1250,2.023792,8.375383,-1.930386
1251,1.937571,8.258027,-1.858535
1252,1.882485,8.298743,-1.892065
1253,1.83219,8.265212,-1.825005
1254,1.88488,8.289163,-1.79866
1255,1.781895,8.387358,-1.695674
1256,1.482517,8.346643,-1.22146
1257,1.087339,8.329878,-0.752036
1258,0.637075,8.322693,-0.313748
1259,0.045505,8.444839,0.086221
1260,-0.450264,8.533455,0.208367
1261,-1.015488,8.528665,0.368833
1262,-1.492097,8.509504,0.58678
1263,-1.995051,8.629255,0.814307
1264,-2.339934,8.796907,1.324446
1265,-2.589016,8.998088,2.014211
1266,-2.727927,9.261541,2.636917
1267,-2.663262,9.338181,3.094365
1268,-2.4525,9.350156,3.345842
1269,-2.054927,9.328601,3.547024
1270,-1.513652,9.381292,3.597319
1271,-0.934058,9.474697,3.547024
1272,-0.385598,9.611213,3.566184
1273,0.011975,9.726174,3.496729
1274,0.182021,9.515413,3.139871
1275,0.138911,9.187295,3.070415
1276,0.220342,9.012458,3.329077
1277,0.323328,8.866362,3.302732
1278,0.203577,8.634045,3.264412
1279,0.167651,8.729846,3.312312
1280,0.122146,9.053174,3.456013
1281,-0.007185,9.474697,3.798501
1282,-0.380808,9.393267,3.491938
1283,-0.962798,9.144185,3.537444
1284,-1.659749,9.072334,3.506309
1285,-2.43334,8.844807,3.312312
1286,-2.996169,8.828042,3.563789
1287,-3.190166,8.971743,3.67875
1288,-2.780618,9.23759,3.973337
1289,-2.007026,9.16095,3.67396
1290,-1.27894,8.756191,3.05844
1291,-0.694556,8.619675,2.45729
1292,-0.512534,8.863967,2.069297
1293,-0.61552,9.134604,1.990261
1294,-0.711321,9.515413,2.315984
1295,-0.701741,9.527388,2.450105
1296,-0.720901,9.491462,2.627336
1297,-0.797542,9.340576,2.574646
1298,-0.905317,9.362131,2.612966
1299,-0.934058,9.584868,2.708767
1300,-0.974773,10.001602,2.713557
1301,-0.965193,10.128538,2.864443
1302,-1.029858,10.116563,3.182981
1303,-1.068179,10.008787,3.477568
1304,-0.869392,9.78126,3.68833
1305,-0.677791,9.630374,3.877537
1306,-0.380808,9.663904,4.100273
1307,-0.289797,9.903406,4.107458
1308,-0.342488,10.245894,4.133804
1309,-0.246687,10.576406,4.172124
1310,-0.277822,10.602751,3.889512
1311,-0.308958,10.485396,3.513494
1312,-0.675396,11.543994,3.530259
1313,-0.119751,14.899417,2.078877
1314,0.031135,15.838264,1.516047
1315,-1.295706,15.479011,4.157754
1316,-2.4525,14.947317,5.206772
1317,-3.04407,13.44564,5.415139
1318,-2.744692,11.167976,4.734954
1319,-2.533931,8.986113,4.687053
1320,-2.011816,8.226892,3.475173
1321,-1.204695,7.079678,0.593965
1322,-0.299377,6.325247,-1.441802
1323,1.044229,6.552773,-2.562671
1324,2.251318,6.559958,-2.41897
1325,3.788921,7.522756,-1.468147
1326,5.309758,9.074729,-1.003513
1327,5.879773,10.700947,-0.684976
1328,5.326523,11.840977,-1.427432
1329,3.71228,11.757151,-1.597478
1330,2.742297,10.772798,-1.369951
1331,2.186653,9.453142,-1.21667
1332,1.84656,8.471184,-0.869392
1333,1.530417,8.073611,-0.701741
1334,1.2023,8.231682,-0.253872
1335,1.19272,8.830437,0.445474
1336,1.580713,9.663904,0.6251
1337,1.89446,10.001602,0.306563
1338,2.093247,9.977651,0.045505
1339,1.990261,9.898616,-0.172441
1340,1.84177,9.683064,-0.225132
1341,1.992656,9.469907,-0.294587
1342,2.380649,9.297466,-0.366438
1343,2.912344,9.093889,-0.555645
1344,3.329077,8.842412,-0.819097
1345,3.695515,8.787327,-1.099314
1346,4.023633,8.777747,-1.020278
1347,4.33738,9.122629,-0.759221
1348,4.34696,9.378896,-0.890947
1349,4.105063,9.577683,-0.744851
1350,3.769761,9.726174,-0.56283
1351,3.329077,9.553733,-0.56762
1352,2.977009,9.297466,-0.706531
1353,2.701582,9.177715,-0.878972
1354,2.356699,9.192085,-0.859812
1355,1.987866,9.172925,-0.773591
1356,1.80824,9.505833,-1.003513
1357,1.705254,9.592053,-1.104104
1358,1.736389,9.7621,-0.993933
1359,1.736389,9.726174,-0.991538
1360,2.026187,9.738149,-1.111289
1361,2.150728,9.498647,-0.996328
1362,2.339934,9.524993,-1.001118
1363,2.4525,9.778865,-0.534089
1364,2.651287,10.351274,-0.02874
1365,2.917134,10.971584,0.684976
1366,3.597319,11.464958,0.493374
1367,3.877537,10.976375,-0.505349
1368,3.848796,10.178833,-1.310076
1369,3.182981,9.450747,-1.947151
1370,2.136357,8.880732,-2.41897
1371,1.199905,8.396938,-2.984194
1372,0.60115,8.480764,-3.199746
1373,0.431104,9.000483,-3.01533
1374,0.519719,9.994417,-3.05365
1375,0.888552,10.617122,-3.410508
1376,1.669329,11.639795,-3.685935
1377,2.39502,12.784614,-3.444038
1378,3.130291,13.400134,-2.653682
1379,3.719465,12.885205,-2.093247
1380,3.71228,11.527229,-1.525627
1381,3.262017,10.976375,-1.120869
1382,2.874023,11.314072,-0.486189
1383,2.598596,11.754756,0.186812
1384,2.426155,11.970308,0.318538
1385,2.4525,12.367881,0.543669
1386,2.840493,12.490027,0.902922
1387,3.420088,13.558206,0.330513
1388,4.234395,15.002402,0.376018
1389,4.25595,16.029866,1.175955
1390,3.372188,16.061001,1.939966
1391,2.205813,15.555652,2.828518
1392,0.704136,14.101875,3.326682
1393,-1.142424,11.771521,2.586621
1394,-2.692002,9.683064,1.492097
1395,-3.515889,8.737031,1.252595
1396,-2.720742,9.338181,1.698069
1397,-0.182021,10.665022,1.132844
1398,1.87051,11.587104,-0.579595
1399,3.661985,13.203743,-3.393743
1400,5.158872,15.191609,-6.844966
1401,6.571934,17.009429,-10.023157
1402,7.30481,17.363892,-11.357183
1403,6.902446,16.57114,-10.003997
1404,5.985154,14.935342,-7.98739
1405,5.096602,13.697117,-6.301296
1406,4.042793,12.348721,-4.89542
1407,3.161426,10.918894,-4.090693
1408,2.696792,9.889036,-3.994893
1409,2.977009,9.129814,-4.711003
1410,3.724255,8.669971,-5.400769
1411,4.780459,8.267607,-6.035449
1412,5.439089,7.994575,-6.421047
1413,5.489385,7.786208,-6.691685
1414,4.679868,7.525151,-6.282136
1415,3.508704,7.321575,-5.55405
1416,2.014211,7.144343,-4.222419
1417,0.59636,7.139553,-2.735112
1418,-0.797542,7.316785,-1.154399
1419,-1.966311,7.613767,-0.086221
1420,-2.792593,7.901169,0.481399
1421,-3.032095,8.147856,0.510139
1422,-2.792593,8.248447,0.182021
1423,-2.114802,7.941885,-0.146096
1424,-1.238225,7.786208,-0.390388
1425,-0.225132,7.659272,-0.775986
1426,0.725691,7.407795,-0.943638
1427,1.427432,6.897656,-1.123264
1428,1.724414,6.397097,-1.398691
1429,1.662144,5.958809,-1.583108
1430,1.346001,5.673801,-1.453777
1431,0.773591,5.54447,-1.293311
1432,0.318538,5.690566,-1.008303
1433,0.122146,6.18394,-0.831072
1434,0.282612,6.900051,-0.304167
1435,0.62989,7.750283,0.421523
1436,1.082549,8.463999,1.015488
1437,1.341211,9.010063,1.973496
1438,1.556763,9.616003,3.276387
1439,1.654958,10.248289,3.997288
1440,1.116079,9.666299,3.264412
1441,0.241897,9.220825,3.903882
1442,-0.61073,9.431587,4.531377
1443,-1.437012,10.250684,5.49178
1444,-1.997446,12.106824,7.209009
1445,-2.191443,13.867163,8.643625
1446,-2.390229,15.050303,9.120234
1447,-2.574646,15.426321,8.686736
1448,-2.998564,15.019167,8.150251
1449,-3.671565,13.900693,6.892866
1450,-4.162544,12.597803,5.762417
1451,-4.124224,11.273357,4.552932
1452,-3.760181,9.960886,3.355422
1453,-2.993774,8.784932,1.686094
1454,-2.071692,8.095166,0.141306
1455,-0.866997,7.355105,-0.807122
1456,0.431104,7.32876,-0.991538
1457,0.740061,9.381292,-2.794988
1458,2.478845,14.372512,-3.027305
1459,4.696633,19.619401,4.375701
1460,6.588699,19.619401,6.004314
1461,5.604346,19.619401,5.623506
1462,4.996011,15.771204,5.657036
1463,3.257227,8.605305,2.148333
1464,1.353186,4.215234,-1.005908
1465,-1.446592,2.562671,-1.705254
1466,-3.834426,-0.373623,-3.63564
1467,-4.543352,-1.695674,-6.607859
1468,-1.927991,-0.747246,-6.08814
1469,3.803291,2.49561,-3.475173
1470,10.708132,9.16095,-2.392625
1471,15.577207,16.496895,-4.30385
1472,13.407319,18.664387,-5.958809
1473,7.676038,15.742463,-3.808081
1474,4.148174,10.815908,-2.397415
1475,2.359094,7.537126,-1.022673
1476,0.764011,5.53968,0.802332
1477,-0.335303,5.412744,2.184258
1478,-0.835862,6.464158,2.387834
1479,-1.010698,8.097561,1.968706
1480,-0.476609,9.577683,1.604663
1481,0.514929,10.732083,1.336421
1482,1.535208,11.115286,1.113684
1483,1.992656,10.880574,0.632285
1484,1.834585,10.38241,0.282612
1485,1.662144,9.644744,-0.00958
1486,1.853745,8.957373,-0.225132
1487,2.47166,8.444839,-0.253872
1488,3.178191,8.150251,-0.225132
1489,3.803291,8.133486,-0.61073
1490,4.361331,8.310718,-1.22146
1491,4.818779,8.662786,-1.386716
1492,5.027146,9.041199,-1.693279
1493,5.242698,9.735754,-1.492097
1494,5.173242,10.071057,-0.869392
1495,4.402046,10.250684,-0.225132
1496,3.606899,9.912986,0.0479
1497,3.06802,9.558523,-0.079036
1498,2.593806,9.172925,0.088616
1499,2.184258,9.060359,0.282612
1500,1.942361,8.945398,0.488584
1501,1.877695,9.23759,0.387993
1502,2.107617,9.321416,-0.03832
1503,2.265688,9.041199,-0.364043
1504,2.313589,8.863967,-0.852627
1505,2.416575,8.732241,-1.336421
1506,2.383044,8.772957,-1.535208
1507,1.939966,8.830437,-1.892065
1508,1.175955,8.935818,-2.179468
1509,0.677791,9.287886,-2.48124
1510,1.161584,9.673484,-2.804568
1511,2.306404,9.877061,-2.847678
1512,3.652405,9.742939,-3.281177
1513,4.775669,9.83874,-3.944597
1514,5.197192,10.248289,-4.557722
1515,4.749324,10.770403,-4.655918
1516,3.973337,11.184741,-4.258345
1517,3.580554,11.539204,-3.448828
1518,3.549419,11.364368,-2.617756
1519,3.168611,10.904524,-2.239343
1520,2.735112,11.124866,-1.89925
1521,2.675237,11.69009,-1.24541
1522,2.759063,12.30561,-1.008303
1523,2.660867,12.473262,-0.862207
1524,2.366279,12.719949,-0.543669
1525,1.85135,12.698394,0.222737
1526,1.983076,12.200229,0.946033
1527,2.905159,13.139077,-0.486189
1528,4.29906,14.726975,0.481399
1529,4.33259,15.431111,1.523232
1530,3.427273,15.483801,1.621428
1531,2.272874,14.597644,2.627336
1532,1.17835,13.589341,3.585344
1533,0.256267,13.004956,2.988984
1534,-0.380808,12.2146,1.640588
1535,-0.459844,12.075688,1.075364
1536,1.175955,12.161909,0.170046
1537,3.230881,11.860137,-0.922083
1538,4.469106,11.716436,-3.173401
1539,5.127737,12.154724,-6.294111
1540,5.470225,13.258828,-9.007668
1541,5.374424,14.384487,-10.164463
1542,4.96248,15.601157,-9.093889
1543,3.990103,16.228652,-7.446116
1544,3.075205,16.254998,-6.011499
1545,2.301614,15.570022,-5.096602
1546,2.179468,14.643149,-4.483477
1547,2.172283,13.457615,-4.243975
1548,2.335144,11.953542,-4.476292
1549,2.897974,10.566826,-5.350474
1550,3.752996,9.915381,-6.037844
1551,4.739744,9.378896,-6.79467
1552,5.764812,9.113049,-7.40061
1553,6.210286,8.725056,-7.125183
1554,6.18394,8.099956,-6.638994
1555,5.589976,7.434141,-6.15041
1556,4.586462,6.638994,-5.448669
1557,3.451223,6.181545,-4.701423
1558,2.150728,5.771997,-3.690725
1559,0.893342,5.419929,-2.600991
1560,-0.0479,5.350474,-1.944756
1561,-0.613125,5.592371,-1.489702
1562,-0.847837,6.045029,-0.850232
1563,-0.701741,6.514453,-0.026345
1564,-0.416733,6.931187,0.316143
1565,-0.02874,7.038962,0.256267
1566,0.376018,6.933582,-0.203577
1567,0.677791,6.536008,-0.855022
1568,1.001118,5.942043,-1.575923
1569,1.123264,5.235513,-2.100432
1570,1.130449,4.770879,-2.42376
1571,1.096919,4.552932,-2.507585
1572,1.008303,4.773274,-2.150728
1573,0.960403,5.223538,-1.578318
1574,1.001118,5.997129,-0.689766
1575,1.156794,7.074888,0.395178
1576,1.575923,8.59333,2.040557
1577,2.294429,10.710527,4.811594
1578,2.936294,11.630215,4.227209
1579,2.41418,11.091335,3.511099
1580,1.18793,10.693762,4.392466
1581,0.143701,11.215876,6.09293
1582,0.083826,13.282778,8.62686
1583,0.450264,15.165264,10.231523
1584,0.395178,15.526912,9.845925
1585,-0.253872,14.990427,9.115444
1586,-1.307681,13.733042,8.205337
1587,-2.126777,12.171489,6.943162
1588,-2.598596,10.842253,5.50615
1589,-2.694397,9.462722,3.676355
1590,-2.565066,8.325088,2.167493
1591,-2.232158,7.470066,0.979563
1592,-1.791475,8.068821,-0.531694
1593,-1.441802,10.899734,-4.291875
1594,-0.735271,17.14834,-0.534089
1595,1.053809,19.619401,6.191125
1596,2.311194,19.619401,7.534731
1597,3.987708,19.619401,7.127578
1598,6.12646,14.940132,3.484753
1599,7.120393,6.622229,-2.184258
1600,5.52531,4.907395,-2.847678
1601,-0.498164,3.906277,-8.329878
1602,-4.90021,2.603386,-10.370435
1603,-5.419929,1.26457,-6.581514
1604,-1.595083,1.008303,-3.149451
1605,4.090693,1.659749,-2.608176
1606,9.728569,4.653523,-3.954177
1607,13.529465,9.651929,-5.070256
1608,14.207256,14.1378,-5.489385
1609,11.108101,15.670613,-4.370911
1610,7.273674,13.752202,-1.662144
1611,4.802014,10.806328,-0.66821
1612,2.636917,8.047266,-0.481399
1613,0.56762,6.574329,0.299377
1614,-1.137634,6.543193,1.223855
1615,-2.186653,7.460486,2.136357
1616,-1.892065,8.732241,2.612966
1617,-0.627495,9.524993,2.39502
1618,0.874182,9.924961,1.559158
1619,1.8753,10.118958,0.510139
1620,2.275269,10.183623,-0.273032
1621,2.344724,10.214758,-0.574805
1622,2.483635,10.202783,-0.471819
1623,2.715952,9.884246,-0.356858
1624,3.211721,9.14179,-0.411943
1625,3.671565,8.349038,-0.522114
1626,4.191284,7.870034,-1.068179
1627,4.806804,7.819739,-1.892065
1628,5.419929,8.064031,-2.708767
1629,5.853428,8.705896,-3.027305
1630,5.951624,9.359736,-3.0776
1631,5.575605,9.80042,-2.912344
1632,5.154082,9.968071,-2.680027
1633,4.574487,9.697434,-2.327959
1634,3.899092,9.340576,-2.019001
1635,3.343447,9.18969,-1.724414
1636,2.768643,9.1849,-1.405876
1637,2.253713,9.079519,-1.17356
1638,2.011816,9.405242,-1.437012
1639,1.947151,9.333391,-1.829795
1640,2.028582,9.347761,-2.253713
1641,2.057322,9.18011,-2.411785
1642,2.141147,9.108259,-2.787803
1643,2.244133,9.206455,-2.969824
1644,2.426155,9.129814,-3.046465
1645,2.780618,9.043594,-3.05844
1646,3.202141,8.914263,-2.914739
1647,3.774551,9.163345,-2.754272
1648,4.315825,9.462722,-2.294429
1649,4.809199,9.639954,-1.753154
1650,4.91458,9.685459,-1.563948
1651,4.615203,9.946516,-1.633403
1652,4.073928,10.506951,-1.551973
1653,3.496729,10.973979,-1.487307
1654,2.852468,11.338022,-1.185535
1655,2.196233,11.405083,-0.792751
1656,1.537603,11.163186,-0.63947
1657,1.063389,10.909314,-0.807122
1658,0.795146,10.849438,-1.123264
1659,0.60115,11.00751,-1.348396
1660,0.608335,11.244617,-1.302891
1661,1.338816,10.928474,-0.895737
1662,2.699187,11.697275,-2.507585
1663,4.35175,13.328284,-2.193838
1664,4.672683,14.904207,-1.26936
1665,3.786526,14.971267,-0.62989
1666,3.202141,13.910273,0.330513
1667,3.228486,13.122312,0.673
1668,3.719465,13.768967,1.17356
1669,4.095483,15.004797,1.420247
1670,3.752996,15.160474,0.265847
1671,2.778223,13.761782,-1.470542
1672,1.21188,11.120076,-3.11592
1673,0.426313,9.393267,-3.515889
1674,1.116079,9.522598,-2.313589
1675,1.81303,10.291399,-2.330354
1676,2.684817,11.361973,-3.412903
1677,3.542234,12.885205,-4.991221
1678,4.380491,14.806011,-7.015012
1679,5.034331,16.207097,-8.02571
1680,5.075046,16.757952,-7.434141
1681,4.691843,16.254998,-6.69408
1682,4.150569,14.817986,-6.08335
1683,3.503914,13.191768,-5.331313
1684,3.079995,11.826606,-4.976851
1685,2.835703,10.700947,-4.802014
1686,2.850073,9.637559,-4.883445
1687,3.149451,8.404124,-5.034331
1688,3.829636,7.503596,-5.194797
1689,4.584067,7.094048,-5.328918
1690,5.098997,7.062913,-5.436694
1691,5.096602,7.094048,-5.266648
1692,4.646338,6.974297,-4.955295
1693,3.808081,6.880891,-4.205654
1694,2.830913,6.991062,-2.988984
1695,1.695674,7.249724,-1.781895
1696,0.699346,7.664062,-0.833467
1697,-0.03353,8.064031,-0.294587
1698,-0.342488,8.370593,-0.203577
1699,-0.308958,8.552615,-0.086221
1700,0.081431,8.523875,0.021555
1701,0.613125,8.480764,0.02874
1702,1.276545,8.447234,-0.040715
1703,2.026187,8.222102,-0.134121
1704,2.560276,7.642507,-0.57241
1705,2.744692,6.943162,-0.845442
1706,2.727927,6.255791,-1.152004
1707,2.47645,5.712122,-1.326841
1708,2.081272,5.422324,-1.338816
1709,1.710044,5.439089,-1.142424
1710,1.401086,5.886958,-0.764011
1711,1.326841,6.638994,-0.455054
1712,1.417852,7.345525,-0.081431
1713,1.504072,8.037686,0.318538
1714,1.513652,8.648416,1.003513
1715,1.468147,9.177715,1.796265
1716,1.415457,10.190808,3.503914
1717,1.154399,9.881851,2.603386
1718,0.387993,9.034014,2.785408
1719,-0.124541,8.763376,3.800896
1720,-0.574805,8.57896,4.167334
1721,-1.147214,8.926238,4.739744
1722,-1.575923,9.912986,5.55405
1723,-1.944756,10.947634,5.925278
1724,-2.248923,11.953542,6.545588
1725,-2.454895,12.85407,6.940767
1726,-2.519561,13.203743,6.888076
1727,-2.41418,12.717554,6.79946
1728,-2.229763,11.824211,6.313271
1729,-1.990261,10.528506,5.388794
1730,-1.700464,9.424402,4.531377
1731,-1.322051,8.413704,3.652405
1732,-0.783171,7.508386,2.648892
1733,0.107776,7.091653,2.277664
1734,0.261057,7.173083,0.409548
1735,-0.732876,13.213323,-1.951941
1736,0.960403,19.619401,4.540957
1737,2.888394,19.619401,6.284531
1738,4.804409,19.619401,10.914104
1739,9.687854,19.619401,12.655283
1740,11.455378,18.41291,-1.966311
1741,8.57417,6.70366,-4.981641
1742,1.84177,5.204377,-3.994893
1743,-5.137317,4.605623,-8.813672
1744,-8.746611,0.696951,-9.17532
1745,-6.454578,-3.676355,-5.494175
1746,0.543669,-4.200864,-4.344565
1747,6.926396,-1.535208,-3.774551
1748,11.302097,3.705095,-3.578159
1749,13.824053,10.636282,-4.083508
1750,14.930552,19.461929,-5.692961
1751,11.728411,19.619401,-5.56363
1752,6.828201,18.015337,-1.456172
1753,3.592529,12.075688,0.423918
1754,1.130449,7.975415,0.467029
1755,-0.651445,5.393584,0.883762
1756,-1.334026,5.041516,1.123264
1757,-0.57241,6.358777,1.300496
1758,1.266965,8.190967,1.355581
1759,2.871628,9.620793,1.549578
1760,3.6548,10.605146,1.365161
1761,3.458408,11.223062,1.607058
1762,2.620151,11.575129,2.265688
1763,1.978286,11.268567,2.426155
1764,1.571133,10.380015,2.634521
1765,1.520837,9.496252,2.646497
1766,1.722019,8.907078,2.368674
1767,2.189048,8.708291,1.88967
1768,2.833308,8.844807,1.257385
1769,3.573369,9.079519,0.479004
1770,4.085903,9.354946,-0.335303
1771,4.421206,9.680669,-0.890947
1772,4.500242,9.855505,-1.19272
1773,4.354146,9.951306,-1.137634
1774,4.011658,9.891431,-1.166375
1775,3.616479,9.75252,-1.130449
1776,3.187771,9.565708,-0.756826
1777,2.756667,9.592053,-0.265847
1778,2.43813,9.78605,0.00958
1779,2.203418,10.023157,0.265847
1780,2.162703,10.162068,0.294587
1781,2.268083,10.209968,0.296982
1782,2.430945,10.145303,-0.002395
1783,2.48603,10.006392,-0.210762
1784,2.47166,9.8579,-0.356858
1785,2.380649,9.666299,-0.526904
1786,2.320774,9.481882,-0.263452
1787,2.46687,9.716594,0.543669
1788,2.799778,10.092612,0.670605
1789,3.199746,10.253079,0.079036
1790,3.429668,10.078242,-0.421523
1791,3.592529,9.817185,-1.001118
1792,3.602109,9.580078,-1.504072
1793,3.515889,9.390872,-1.777104
1794,3.582949,9.259146,-1.85135
1795,3.6548,9.108259,-1.978286
1796,3.820056,9.043594,-1.927991
1797,3.858376,8.971743,-1.973496
1798,3.958967,9.010063,-2.203418
1799,3.985313,9.091494,-2.251318
1800,3.932622,9.275911,-2.217788
1801,3.762576,9.527388,-2.011816
1802,3.812871,10.317744,-1.27415
1803,4.073928,11.203901,-1.094524
1804,3.935017,11.254197,-1.508862
1805,3.436853,10.41594,-1.528022
1806,2.871628,9.699829,-1.499282
1807,2.39502,9.158555,-1.470542
1808,1.990261,8.830437,-1.374741
1809,1.738784,8.705896,-1.149609
1810,1.640588,8.710686,-1.027463
1811,1.506467,8.871152,-1.077759
1812,1.465752,9.062754,-1.460962
1813,1.607058,9.292676,-1.753154
1814,1.916016,9.508228,-1.990261
1815,2.375859,9.604028,-2.426155
1816,2.881208,9.536968,-3.036885
1817,3.204536,9.17053,-3.372188
1818,3.530259,8.923843,-3.604504
1819,3.781736,8.650811,-3.741021
1820,3.954177,8.646021,-3.774551
1821,4.061953,8.624465,-3.71707
1822,4.210444,8.605305,-3.611689
1823,4.210444,8.722661,-3.62127
1824,4.145779,8.928633,-3.324287
1825,4.150569,9.316626,-3.11113
1826,4.030818,9.683064,-2.816543
1827,3.623665,10.334509,-2.47645
1828,2.866838,11.211086,-1.990261
1829,2.004631,11.994258,-1.219065
1830,1.128054,12.355906,-0.502954
1831,0.411943,12.145144,0.114961
