frame,acc x,acc y,acc z
872,0.055085,11.807446,-0.866997
873,-0.138911,11.70925,-0.747246
874,-0.239502,11.59429,-0.665815
875,-0.234712,11.536809,-0.593965
876,-0.275427,11.692485,-0.538879
877,-0.301772,11.920012,-0.510139
878,-0.330513,12.27208,-0.330513
879,-0.356858,12.700789,-0.244292
880,-0.380808,13.043276,-0.03832
881,-0.361648,13.299543,0.067061
882,-0.256267,13.237273,0.292192
883,-0.079036,12.789404,0.440684
884,0.04311,12.157119,0.397573
885,0.035925,11.512859,0.526904
886,0.088616,11.203901,0.771196
887,0.131726,11.182346,1.276545
888,0.201182,10.899734,1.348396
889,0.225132,9.685459,0.280217
890,-0.095801,8.145461,-1.28373
891,-0.61552,7.901169,-1.690884
892,-0.63947,8.828042,-1.159189
893,-0.172441,10.006392,-0.730481
894,0.450264,10.995535,-0.464634
895,0.778381,11.275752,-0.122146
896,0.986748,11.02188,-0.110171
897,0.967588,10.617122,-0.179626
898,0.804727,10.233918,-0.316143
899,0.56283,10.025552,-0.536484
900,0.294587,9.802815,-0.58199
901,0.112566,9.582473,-0.680186
902,0.00479,9.273516,-0.711321
903,-0.059875,8.998088,-0.62031
904,-0.088616,8.916658,-0.340093
905,-0.040715,8.844807,-0.035925
906,-0.00958,8.854387,0.040715
907,-0.093406,8.959768,0.182021
908,-0.217947,8.995693,0.332908
909,-0.308958,9.002878,0.476609
910,-0.510139,8.988508,0.684976
911,-0.735271,9.036409,1.051414
912,-0.936453,9.172925,1.343606
913,-1.125659,9.273516,1.726809
914,-1.25499,9.354946,1.937571
915,-1.336421,9.335786,2.234553
916,-1.343606,9.177715,2.145938
917,-1.331631,8.875942,2.133962
918,-1.154399,8.686736,2.284849
919,-0.960403,8.669971,2.48603
920,-0.850232,8.796907,2.581831
921,-0.795146,8.883127,2.624941
922,-0.787961,8.770562,2.380649
923,-0.809517,8.629255,2.512375
924,-0.749641,8.698711,2.687212
925,-0.680186,8.931028,2.950664
926,-0.646655,8.988508,2.943479
927,-0.749641,8.722661,2.907554
928,-0.840652,8.437654,3.027305
929,-0.934058,8.490344,3.345842
930,-1.053809,8.691526,3.64043
931,-1.068179,8.940608,3.987708
932,-1.003513,9.057964,4.006868
933,-1.010698,9.089099,4.124224
934,-0.969983,9.278306,4.397256
935,-0.998723,9.261541,4.174519
936,-1.106499,9.113049,3.985313
937,-1.077759,9.24717,3.966152
938,-0.934058,9.297466,3.836821
939,-0.931663,9.18969,3.800896
940,-0.795146,9.19927,4.023633
941,-0.706531,8.988508,3.899092
942,-0.656235,8.473579,3.561394
943,-0.593965,7.93949,3.448828
944,-0.560435,7.680828,3.353027
945,-0.526904,7.515571,3.194956
946,-0.407153,7.606582,3.175796
947,-0.263452,7.891589,3.223696
948,-0.148491,8.167017,3.412903
949,-0.364043,8.514294,3.666775
950,-0.924478,8.856782,3.714675
951,-1.642983,9.211245,4.011658
952,-2.045347,9.659114,4.490662
953,-2.282454,9.889036,4.682263
954,-2.320774,9.680669,4.543352
955,-2.277664,9.192085,4.220024
956,-2.126777,8.698711,3.68354
957,-1.844165,8.61728,3.398533
958,-1.616638,8.873547,3.10634
959,-1.413062,9.290281,2.972219
960,-1.350791,9.462722,2.598596
961,-1.331631,9.299861,2.315984
962,-1.271755,9.053174,2.222578
963,-1.233435,9.113049,2.220183
964,-0.747246,9.462722,1.374741
965,0.045505,9.541758,0.093406
966,0.740061,9.496252,-0.282612
967,0.981958,10.128538,0.404758
968,0.675396,11.692485,2.050137
969,0.342488,13.658796,4.100273
970,-0.095801,14.403647,5.005591
971,-1.008303,15.196399,7.496411
972,-1.825005,19.619401,12.686418
973,-2.117197,19.619401,6.71803
974,-3.08239,14.513818,1.973496
975,-3.506309,8.703501,-1.441802
976,-4.493057,4.243975,-4.643943
977,-5.115762,0.917292,-5.379214
978,-3.68354,1.587898,-4.253555
979,-1.001118,5.786367,-0.864602
980,1.425037,10.796748,1.429827
981,3.860771,15.189214,1.573528
982,5.182822,16.568745,1.140029
983,4.543352,13.665981,-0.912502
984,3.290757,9.592053,-1.607058
985,2.536326,7.060518,-0.986748
986,2.4525,6.358777,0.268242
987,2.735112,7.120393,0.500559
988,2.945874,8.58375,0.332908
989,3.264412,10.001602,0.323328
990,3.69791,10.710527,0.474214
991,4.030818,10.475815,0.687371
992,3.992498,9.7621,0.804727
993,3.750601,9.23759,0.570015
994,3.252437,8.842412,0.186812
995,2.926714,8.969348,0.193997
996,2.842888,9.211245,0.02874
997,2.555486,9.393267,-0.373623
998,2.212998,9.522598,-0.536484
999,1.834585,9.592053,-0.632285
1000,1.417852,9.553733,-0.366438
1001,1.228645,9.78605,-0.088616
1002,1.298101,10.054292,0.031135
1003,1.401086,10.023157,-0.119751
1004,2.047742,10.126143,-0.225132
1005,2.608176,10.011182,-0.58199
1006,3.214116,10.071057,-0.941243
1007,3.623665,10.231523,-1.104104
1008,4.31822,10.918894,-1.058599
1009,4.30385,11.220667,-1.156794
1010,4.078718,11.141631,-1.511257
1011,3.781736,10.674602,-1.609453
1012,3.657195,9.944121,-1.942361
1013,3.456013,9.206455,-1.959126
1014,3.238066,8.653206,-1.971101
1015,3.182981,8.851992,-1.623823
1016,3.11113,9.239985,-1.470542
1017,3.238066,10.162068,-1.592688
1018,3.254832,10.540481,-1.623823
1019,3.161426,10.116563,-2.102827
1020,3.324287,9.75252,-2.538721
1021,3.422483,9.295071,-2.644102
1022,3.446433,8.411309,-2.783013
1023,3.477568,7.755073,-3.08718
1024,3.154241,7.3575,-3.276387
1025,2.972219,7.99697,-3.211721
1026,2.165098,8.6077,-3.079995
1027,1.003513,9.436377,-2.797383
1028,0.364043,9.750125,-2.802173
1029,0.05748,9.577683,-2.783013
1030,0.076641,9.235195,-2.802173
1031,0.270637,9.086704,-3.11113
1032,0.886157,9.206455,-3.214116
1033,1.477727,9.613608,-3.051255
1034,2.119592,9.86269,-2.967429
1035,2.921924,10.095007,-3.03928
1036,3.695515,10.260264,-2.972219
1037,4.064348,10.574011,-2.548301
1038,3.985313,10.942844,-2.028582
1039,3.62127,11.764336,-1.082549
1040,2.998564,12.331956,-0.514929
1041,2.421365,12.664863,-0.232317
1042,1.815425,12.662468,-0.198787
1043,1.393901,12.758269,-0.0479
1044,1.353186,12.403806,0.598755
1045,2.121987,13.076807,0.0
1046,3.65001,14.628779,0.007185
1047,4.998406,15.186819,0.876577
1048,4.794829,15.584392,1.120869
1049,4.32301,15.318545,1.580713
1050,3.295547,14.034814,2.347119
1051,1.82261,13.100757,2.591411
1052,0.694556,12.722344,1.683699
1053,-0.246687,11.462563,0.797542
1054,-0.368833,10.408755,1.106499
1055,1.757944,10.243499,0.948428
1056,4.358936,11.04583,-0.469424
1057,5.901328,12.8876,-2.692002
1058,7.182664,15.579602,-5.795947
1059,7.795789,17.78781,-8.885522
1060,7.450906,18.43207,-10.550061
1061,5.961204,17.589023,-9.536968
1062,4.181704,16.156802,-7.568262
1063,3.041675,14.885046,-5.592371
1064,2.253713,13.481565,-4.028423
1065,1.999841,12.652888,-3.475173
1066,2.016606,12.051738,-3.67396
1067,2.078877,11.393108,-4.296665
1068,2.294429,10.650652,-5.170847
1069,2.799778,9.84832,-5.999524
1070,3.590134,9.263936,-6.385122
1071,4.117039,8.756191,-6.507268
1072,4.217629,8.281978,-6.368357
1073,3.714675,7.97781,-6.021079
1074,2.569856,7.661667,-5.053491
1075,1.199905,7.479646,-4.157754
1076,-0.182021,7.175479,-3.338657
1077,-1.336421,6.947952,-2.579436
1078,-2.191443,6.552773,-2.023792
1079,-2.493215,6.258186,-1.904041
1080,-2.119592,5.863008,-2.212998
1081,-1.324446,5.666616,-1.927991
1082,-0.182021,5.870193,-1.559158
1083,1.118474,6.200706,-1.405876
1084,2.150728,6.444998,-1.080154
1085,2.850073,6.399492,-1.037043
1086,3.046465,6.090535,-0.991538
1087,2.972219,5.886958,-0.914897
1088,2.543511,5.767207,-0.905317
1089,2.136357,5.791157,-0.917292
1090,1.659749,5.973179,-1.001118
1091,1.26457,6.09293,-1.017883
1092,1.082549,6.315667,-0.991538
1093,1.063389,6.555168,-0.883762
1094,1.022673,6.828201,-0.773591
1095,1.075364,7.30002,-0.234712
1096,1.087339,8.013735,0.924478
1097,0.981958,9.342971,2.775828
1098,0.632285,10.073452,2.835703
1099,0.126936,10.293794,2.957849
1100,-0.186812,10.775193,4.093088
1101,-0.546064,11.570339,4.576882
1102,-0.929268,13.007351,5.149292
1103,-1.108894,14.664705,6.334827
1104,-1.049019,16.111296,7.613767
1105,-1.312471,16.207097,8.035291
1106,-2.071692,14.906602,7.735913
1107,-2.821333,13.179792,6.993457
1108,-3.501519,11.601475,6.296506
1109,-3.798501,10.37762,5.180427
1110,-3.690725,9.553733,2.44292
1111,-3.987708,12.698394,0.02874
1112,-3.520679,17.986597,0.117356
1113,-2.50519,19.619401,4.109854
1114,-0.814307,19.619401,3.769761
1115,0.866997,19.619401,4.94811
1116,2.802173,17.886006,7.786208
1117,2.162703,9.613608,4.320615
1118,1.120869,2.790198,-2.955454
1119,1.080154,-1.032253,-8.396938
1120,1.367556,-3.779341,-10.327324
1121,2.794988,-5.829478,-10.935659
1122,5.728887,-5.075046,-9.031619
1123,10.092612,0.421523,-3.147056
1124,14.08032,9.187295,-0.795146
1125,14.262341,17.756675,-2.44292
1126,9.778865,19.619401,-3.403323
1127,4.385281,18.012942,-0.718506
1128,1.571133,12.018208,-0.249082
1129,-0.687371,6.797065,-0.179626
1130,-2.634521,4.466711,0.196392
1131,-3.551814,4.802014,1.25499
1132,-3.139871,6.524033,2.071692
1133,-2.155518,8.073611,1.86093
1134,-0.637075,9.338181,1.128054
1135,1.144819,9.855505,0.079036
1136,2.634521,9.78126,-0.996328
1137,3.695515,9.457932,-2.258503
1138,4.31343,9.216035,-2.847678
1139,4.543352,8.875942,-2.548301
1140,4.682263,8.768167,-1.999841
1141,4.682263,8.576565,-1.470542
1142,4.612808,8.337063,-1.369951
1143,4.773274,8.361013,-1.528022
1144,5.079836,8.600515,-1.80345
1145,5.434299,8.993298,-1.949546
1146,5.352869,9.486672,-1.683699
1147,4.854705,10.099797,-1.25499
1148,4.014053,10.590776,-0.692161
1149,3.06802,10.502161,-0.251477
1150,2.421365,10.41594,-0.081431
1151,2.196233,10.4351,-0.435894
1152,2.042952,10.207573,-0.924478
1153,2.241738,10.164463,-1.755549
1154,2.232158,9.79563,-2.387834
1155,2.47645,9.558523,-2.890789
1156,2.787803,10.090217,-3.04407
1157,3.168611,10.516531,-2.811753
1158,3.750601,11.290122,-2.624941
1159,4.023633,11.438613,-2.277664
1160,3.65959,10.442285,-2.351909
1161,2.703977,9.314231,-2.411785
1162,1.444197,8.662786,-1.590293
1163,0.459844,8.581355,-0.330513
1164,0.162861,8.53585,0.366438
1165,0.929268,8.823252,0.452659
1166,2.105222,9.314231,-0.500559
1167,3.367397,9.860295,-2.030977
1168,4.191284,10.114167,-3.475173
1169,4.660708,10.279424,-4.126619
1170,4.540957,10.492581,-3.822451
1171,4.076323,10.734478,-2.914739
1172,3.281177,11.105706,-2.016606
1173,2.39981,11.498489,-1.326841
1174,1.415457,11.819421,-0.55325
1175,0.790356,12.348721,0.399968
1176,1.049019,12.767849,1.377136
1177,2.270479,14.274316,1.161584
1178,4.026028,15.440691,1.480122
1179,4.608018,16.183147,2.4525
1180,4.085903,16.111296,3.0297
1181,2.622546,14.952107,3.860771
1182,1.046624,13.699512,4.018843
1183,0.462239,12.988191,4.049978
1184,1.005908,12.176279,3.63564
1185,2.847678,11.64698,2.42855
1186,4.91458,11.249407,-0.277822
1187,6.306086,11.867322,-4.267925
1188,7.170688,13.754597,-6.907236
1189,7.855664,15.895745,-10.267449
1190,8.250842,17.14834,-12.25292
1191,7.465276,17.727935,-10.669812
1192,5.853428,17.77823,-8.368198
1193,4.409231,17.325571,-5.973179
1194,3.317102,16.238232,-4.121829
1195,2.548301,14.429993,-3.331472
1196,1.949546,12.545112,-3.412903
1197,1.901646,11.326047,-4.823569
1198,2.066902,10.348879,-6.296506
1199,2.790198,9.330996,-7.264094
1200,3.599714,8.519084,-7.525151
1201,4.172124,7.877219,-7.132368
1202,3.72186,7.204219,-6.425837
1203,2.876418,6.71803,-6.040239
1204,1.638193,6.13604,-5.45825
1205,0.538879,5.724097,-4.536167
1206,-0.534089,5.50136,-3.463198
1207,-1.8274,5.412744,-2.392625
1208,-2.608176,5.585186,-1.760339
1209,-3.331472,5.697751,-1.578318
1210,-3.182981,5.918093,-1.908831
1211,-2.277664,6.128855,-2.129172
1212,-0.996328,6.480923,-1.791475
1213,0.148491,6.902446,-1.460962
1214,1.247805,7.254514,-1.257385
1215,2.121987,7.256909,-1.190325
1216,2.636917,7.101233,-1.523232
1217,2.897974,6.859336,-1.923201
1218,2.897974,6.603069,-2.253713
1219,2.720742,6.265371,-2.48124
1220,2.50519,6.068979,-2.48124
1221,2.318379,5.999524,-2.39502
1222,2.150728,5.889353,-1.707649
1223,2.196233,6.1073,-0.728086
1224,2.450105,6.964717,0.811912
1225,2.773433,8.844807,3.800896
1226,2.622546,10.269844,4.732559
1227,1.20709,10.609937,5.47741
1228,0.134121,10.873389,6.308481
1229,-0.083826,12.102034,7.841294
1230,0.570015,14.612014,10.013577
1231,1.595083,17.213005,11.211086
1232,1.25499,18.283579,10.451865
1233,-0.304167,17.086069,9.601633
1234,-2.268083,14.008469,8.54543
1235,-3.671565,11.256592,7.522756
1236,-4.550537,9.407637,6.11688
1237,-5.137317,7.611372,4.689448
1238,-5.46304,6.459368,3.594924
1239,-5.194797,7.129973,3.913462
1240,-3.978127,5.951624,1.075364
1241,-4.433181,9.328601,1.396296
1242,-1.985471,19.619401,3.932622
1243,1.774709,19.619401,10.844648
1244,6.468948,19.619401,4.665498
1245,8.107141,9.110654,-1.911226
1246,8.171807,7.448511,-1.844165
1247,6.471343,6.868916,-4.488267
1248,2.337539,1.355581,-7.297625
1249,-0.179626,-2.560276,-10.576406
1250,1.276545,-2.794988,-6.646179
1251,5.261858,0.919687,-1.78429
1252,8.289163,6.811436,-2.174678
1253,8.966953,12.92592,-3.781736
1254,8.816067,18.559006,-4.703818
1255,6.586304,18.657202,-4.588857
1256,4.586462,13.630056,-3.558999
1257,3.810476,8.59812,-2.718347
1258,3.336262,6.054609,-1.949546
1259,2.531536,5.827083,-1.314866
1260,0.977168,6.957532,-0.744851
1261,0.337698,8.576565,-0.229922
1262,1.022673,10.027947,0.380808
1263,2.282454,10.782378,0.158071
1264,3.118315,10.768008,-0.287402
1265,3.355422,10.600356,-0.479004
1266,3.175796,10.576406,-0.670605
1267,3.123105,10.150093,-0.965193
1268,3.041675,9.515413,-0.874182
1269,3.180586,8.981323,-1.247805
1270,3.1255,8.605305,-1.082549
1271,3.228486,8.796907,-1.290916
1272,3.271597,9.129814,-1.389111
1273,3.362607,9.469907,-1.561553
1274,3.429668,9.639954,-1.659749
1275,3.542234,10.020762,-1.592688
1276,3.71228,10.209968,-1.350791
1277,3.877537,10.217153,-1.290916
1278,4.033213,10.090217,-1.374741
1279,4.248765,9.687854,-1.717229
1280,4.507427,9.393267,-2.301614
1281,4.519402,9.053174,-2.866838
1282,4.174519,8.523875,-3.187771
1283,3.73144,8.428074,-3.293152
1284,3.451223,8.772957,-2.909949
1285,3.582949,9.24717,-2.387834
1286,3.530259,9.431587,-1.693279
1287,3.329077,9.716594,-1.391506
1288,2.938689,9.77168,-1.453777
1289,2.440525,9.613608,-1.355581
1290,2.014211,9.738149,-1.108894
1291,1.623823,9.76689,-0.907712
1292,1.360371,9.903406,-0.471819
1293,1.276545,9.977651,-0.208367
1294,1.434617,9.869875,-0.311353
1295,1.698069,9.80042,-0.890947
1296,2.030977,9.941726,-1.731599
1297,2.397415,10.291399,-2.459685
1298,2.816543,10.712922,-2.771038
1299,3.331472,10.971584,-2.977009
1300,3.585344,11.170371,-2.665657
1301,3.465593,11.469749,-2.045347
1302,2.871628,11.579919,-1.463357
1303,2.002236,11.551179,-0.996328
1304,1.22146,11.505674,-0.443079
1305,1.262175,10.322534,0.320933
1306,2.794988,11.381133,-1.096919
1307,4.636758,13.242063,-0.423918
1308,5.724097,14.15696,0.234712
1309,5.50136,14.480288,1.140029
1310,4.90979,13.608501,1.89925
1311,4.562512,13.457615,2.42855
1312,4.097878,14.12343,2.885999
1313,3.745811,14.588064,1.743574
1314,3.367397,13.752202,-0.299377
1315,2.814148,11.888877,-1.635798
1316,2.464475,10.521321,-3.113525
1317,3.089575,11.199111,-4.679868
1318,3.805686,12.992981,-5.230723
1319,4.416416,15.045513,-5.951624
1320,4.418811,16.319663,-7.625742
1321,4.157754,17.076489,-8.696316
1322,3.67875,17.299226,-8.401729
1323,3.046465,16.875308,-7.458091
1324,2.426155,15.744858,-6.615044
1325,1.961521,14.291082,-6.157595
1326,1.935176,12.712764,-5.901328
1327,2.145938,11.469749,-5.410349
1328,2.723137,10.538086,-5.362449
1329,3.400928,9.75731,-5.52531
1330,3.980522,9.034014,-5.932463
1331,4.394861,8.212522,-6.231841
1332,4.646338,7.752678,-6.435417
1333,4.509822,7.268884,-6.365962
1334,3.879932,6.76114,-5.922883
1335,2.974614,6.425837,-5.261858
1336,1.829795,6.272556,-4.34217
1337,0.651445,6.064189,-3.563789
1338,-0.464634,5.951624,-2.766248
1339,-1.288521,6.033054,-2.246528
1340,-1.631008,6.167175,-2.232158
1341,-1.511257,6.207891,-1.86572
1342,-1.094524,6.358777,-1.314866
1343,-0.455054,6.550378,-0.996328
1344,0.354463,6.797065,-0.735271
1345,1.156794,6.988667,-0.778381
1346,1.745969,6.995852,-0.979563
1347,1.973496,6.813831,-1.472937
1348,2.026187,6.435417,-1.985471
1349,1.978286,6.16478,-2.217788
1350,1.923201,6.07377,-2.119592
1351,1.84177,6.133645,-1.8753
1352,1.741179,6.306086,-1.688489
1353,1.81303,6.550378,-1.26457
1354,2.014211,7.094048,-0.397573
1355,2.330354,8.047266,0.847837
1356,2.591411,9.211245,2.701582
1357,2.821333,10.698552,5.295388
1358,2.943479,10.595566,3.700305
1359,2.557881,9.16574,2.48603
1360,1.829795,9.093889,3.604504
1361,0.641865,9.817185,4.603228
1362,-0.179626,11.182346,6.045029
1363,-0.761616,12.90676,7.34313
1364,-1.305286,14.116245,8.298743
1365,-1.995051,14.552139,9.069939
1366,-2.658472,14.06116,9.036409
1367,-3.309917,12.566667,7.757468
1368,-3.65001,10.938054,6.399492
1369,-3.685935,9.553733,4.981641
1370,-3.652405,8.880732,3.992498
1371,-1.753154,6.485713,-0.301772
1372,-2.083667,8.272397,-2.660867
1373,-2.814148,16.451389,-1.825005
1374,-1.152004,19.619401,7.750283
1375,-0.227527,19.619401,2.234553
1376,3.412903,19.619401,6.564749
1377,6.627019,19.619401,7.673643
1378,6.171965,12.89239,-0.488584
1379,3.932622,8.078401,-3.163821
1380,0.852627,5.348079,-4.981641
1381,-0.893342,2.852468,-8.904683
1382,-1.599873,-0.124541,-8.708291
1383,0.943638,-1.729204,-6.540798
1384,5.980364,-0.510139,-5.728887
1385,10.150093,3.62127,-4.912185
1386,11.848162,8.533455,-4.830754
1387,11.668535,13.752202,-5.314548
1388,10.490186,16.712446,-4.816384
1389,8.059241,15.30657,-2.771038
1390,5.743257,11.812236,-1.161584
1391,3.123105,8.844807,-0.902922
1392,1.276545,7.620952,-0.464634
1393,0.292192,7.666458,-0.136516
1394,-0.01916,8.456814,0.337698
1395,0.481399,9.259146,0.598755
1396,1.353186,9.668694,0.694556
1397,2.169888,9.968071,0.754431
1398,2.703977,10.159673,0.754431
1399,2.790198,10.262659,0.514929
1400,2.42855,10.178833,0.65384
1401,2.090852,9.989626,1.087339
1402,1.930386,9.788445,1.765129
1403,2.007026,9.616003,2.265688
1404,2.356699,9.601633,2.603386
1405,2.869233,9.560918,2.308799
1406,3.259622,9.524993,1.88488
1407,3.527864,9.520203,1.631008
1408,3.67396,9.711804,1.398691
1409,3.937412,10.174043,1.214275
1410,3.973337,10.253079,0.469424
1411,3.882327,9.845925,-0.134121
1412,3.71707,9.378896,-0.490979
1413,3.551814,9.103469,-0.759221
1414,3.374583,9.144185,-0.816702
1415,3.271597,9.383687,-0.768801
1416,3.398533,9.723779,-0.723296
1417,3.436853,9.78126,-0.926873
1418,3.403323,9.505833,-0.981958
1419,3.309917,9.443562,-1.175955
1420,3.173401,9.556128,-1.451382
1421,3.10634,9.613608,-1.334026
1422,3.312312,9.721384,-1.374741
1423,3.376978,9.632769,-1.494492
1424,3.343447,9.587263,-1.434617
1425,3.273992,9.544153,-1.367556
1426,3.242856,9.604028,-1.190325
1427,3.336262,9.769285,-1.166375
1428,3.329077,9.707014,-1.403481
1429,3.250042,9.690249,-1.441802
1430,3.185376,9.81958,-1.348396
1431,3.163821,9.968071,-1.353186
1432,3.197351,9.817185,-1.619033
1433,3.307522,9.639954,-1.88967
1434,3.362607,9.491462,-2.014211
1435,3.424878,9.445957,-2.086062
1436,3.439248,9.407637,-2.224973
1437,3.427273,9.486672,-2.325564
1438,3.434458,9.563313,-2.406995
1439,3.295547,9.441167,-2.703977
1440,3.04886,9.139395,-2.986589
1441,2.610571,8.878337,-3.02491
1442,2.090852,9.022039,-2.924319
1443,1.745969,9.249565,-2.416575
1444,1.662144,9.671089,-1.973496
1445,1.920806,9.671089,-1.731599
1446,2.380649,9.711804,-1.892065
1447,2.931504,9.718989,-2.014211
1448,3.405718,9.546548,-2.284849
1449,3.997288,9.352551,-2.545906
1450,4.31343,9.086704,-2.785408
1451,4.421206,9.2328,-2.687212
1452,4.287085,9.685459,-2.478845
1453,3.851191,9.865085,-2.289639
1454,3.214116,10.025552,-2.272874
1455,2.610571,10.085427,-2.201023
1456,2.212998,10.552456,-2.019001
1457,1.844165,11.146421,-1.872905
1458,1.312471,11.560759,-1.611848
1459,0.522114,11.503279,-1.501677
1460,-0.203577,11.00272,-1.547183
1461,-0.857417,10.145303,-1.762734
1462,-1.005908,9.381292,-2.181863
