acc x,acc y,acc z
-0.36731,9.593536,-1.058258
-0.287369,9.61824,-1.193253
-0.229462,9.642014,-1.297897
-0.054596,9.648712,-1.451126
0.135468,9.711487,-1.554672
0.274658,9.742035,-1.575775
0.385605,9.685104,-1.574341
0.441116,9.628845,-1.504684
0.42926,9.627014,-1.398483
0.416763,9.61235,-1.262741
0.393005,9.589767,-1.158859
0.351318,9.57457,-0.987793
0.287247,9.544434,-0.847641
0.255157,9.483078,-0.79155
0.215118,9.420563,-0.660843
0.166916,9.331879,-0.522461
0.11412,9.278748,-0.394211
0.073395,9.307144,-0.226532
0.04245,9.431534,-0.096161
0.06308,9.726318,-0.023727
0.063446,10.238327,0.077133
0.071213,10.946808,0.205643
-0.020386,11.786438,0.272949
-0.1194,12.635773,0.246338
-0.043121,13.326492,0.090851
-0.091034,13.471603,-0.217041
-0.159805,13.018463,-0.422699
0.111343,12.328766,-0.205414
0.474319,11.780228,0.43721
0.578339,11.401978,1.175537
0.581894,11.078384,1.673035
0.548065,10.88237,1.927139
0.187759,10.610291,2.028534
-0.576126,10.003769,1.888763
-1.672562,9.123276,1.649246
-2.680084,8.327637,1.44661
-3.473068,7.848908,1.503113
-4.038879,7.652481,1.723984
-4.080032,7.623825,1.912994
-3.79895,7.695709,2.162415
-3.32338,7.806747,2.46286
-2.372803,7.76207,2.721909
-1.01564,7.527924,2.866074
0.261444,7.273498,2.893478
1.116791,7.148529,2.789444
1.589645,7.10965,2.619659
1.690216,7.07721,2.263794
1.536881,7.101502,1.884003
1.17833,7.055862,1.745407
0.662277,6.948883,1.84819
0.109299,6.836411,2.037964
-0.485855,6.708252,2.277405
-1.024918,6.65538,2.594604
-1.449066,6.677887,2.959259
-1.769897,6.889954,3.265564
-1.898575,7.233109,3.551895
-1.882919,7.547867,3.789368
-1.812241,7.881699,3.999695
-1.643005,8.200684,4.198273
-1.406677,8.457397,4.194275
-1.278976,8.591446,3.956665
-1.050171,8.701004,3.817642
-0.883728,8.784424,3.817734
-0.764496,8.776291,3.949097
-0.634445,8.814667,4.171783
-0.419891,9.066879,4.569473
-0.111084,9.595245,4.933502
0.339233,10.057709,5.3983
0.236374,10.05159,5.808929
0.050064,9.723541,6.215576
-0.416901,9.361801,6.238586
-1.303375,9.11322,5.810074
-1.78978,8.985458,5.37117
-1.953735,8.706802,4.966217
-2.05748,8.447952,4.607239
-2.107361,8.39917,3.975464
-1.966553,9.004059,3.243317
-1.582718,10.190323,2.817337
-1.261993,11.347092,2.732986
-1.102783,12.099442,3.218643
-1.209824,12.248596,3.900208
-1.729385,11.341003,4.764694
-2.266922,9.37883,5.516022
-2.264145,7.465759,5.887039
-1.732788,5.876511,5.611679
-1.109604,5.093384,4.448166
-0.451492,5.220993,3.064835
0.453796,6.222824,1.63884
1.035217,7.739822,0.287033
1.402527,9.529816,-0.86026
1.905945,11.170197,-1.474258
2.474045,11.689072,-1.887161
2.993256,11.198364,-2.11676
3.422073,10.501755,-1.917389
3.577469,9.4729,-1.638107
3.330002,8.723343,-1.058518
2.678818,8.181091,-0.393723
1.338882,7.973694,0.352829
-0.02179,8.121536,0.839005
-1.242584,8.427002,1.09935
-1.958374,8.824387,1.103394
-1.943512,9.306,0.724792
-1.218674,9.758499,-0.172943
-0.063004,10.19841,-1.079529
1.373215,10.252838,-1.808975
2.390228,10.059662,-1.999451
2.936325,9.603531,-1.816376
3.054428,9.065704,-1.231979
2.8759,8.477325,-0.825485
2.576508,8.107071,-0.515381
2.491272,8.028748,-0.503861
2.355133,8.212708,-0.501297
2.130005,8.552475,-0.592911
1.806564,8.915207,-0.789307
1.427872,9.310562,-1.071625
1.037308,9.421555,-1.209732
0.785263,9.407105,-1.189316
0.623978,9.34584,-1.048904
0.512711,9.178879,-1.049912
0.388001,8.925171,-1.030853
0.316498,8.809525,-0.992203
0.198685,8.874344,-0.948242
0.153183,9.083405,-1.023483
0.015976,9.03421,-1.082367
-0.124313,8.700058,-1.473496
-0.137466,8.472839,-1.616211
0.052475,8.555557,-1.955612
0.302094,8.972885,-2.448929
0.509308,9.345657,-2.939011
0.854919,9.667923,-2.924393
1.277725,10.010239,-2.614243
1.327866,10.387009,-2.325485
1.263062,10.546265,-2.104767
1.376312,10.678986,-1.622238
1.58461,10.816177,-1.264877
1.59668,10.957764,-1.056747
1.599091,11.155304,-1.101959
1.61203,11.324371,-1.095352
1.575104,11.418961,-0.795654
1.643967,11.467133,-0.243912
1.681992,11.483765,0.253174
1.772064,11.667816,0.570633
2.332138,12.119171,0.758423
3.202271,13.441376,0.727005
3.537186,15.047363,-0.229095
2.930481,15.681061,-1.687485
1.993378,14.822937,-2.644882
1.183975,12.744293,-2.622467
0.654739,10.611435,-1.62117
0.294022,9.193283,-0.53212
-0.227386,8.34787,-0.16539
-0.996872,7.927704,-0.580444
-1.966797,8.172546,-0.92514
-2.574081,9.800354,-0.804703
-2.421066,12.425781,-0.665298
-2.298904,14.504669,-1.380295
-2.861633,15.126633,-2.801346
-3.1893,14.067642,-3.920471
-2.490036,12.476898,-3.864105
-1.346024,11.136307,-3.094254
-0.615173,10.468155,-2.352341
-0.260422,10.207336,-2.015045
-0.00444,10.098541,-1.842438
-0.238098,9.934692,-1.680939
-0.264496,9.586472,-1.636978
-0.05191,9.252884,-1.491425
0.389923,8.999603,-1.309738
0.946426,8.748474,-0.925873
1.422562,8.306808,-0.43689
1.312317,7.820892,0.240738
0.970673,7.211929,0.738983
0.503845,6.564362,0.998917
0.192947,6.057541,1.024109
-0.2211,5.682877,0.981949
-0.607285,5.405975,1.044083
-0.855667,5.30043,1.062286
-0.96875,5.304382,1.143677
-0.808533,5.435654,1.361649
-0.589142,5.594528,1.509247
-0.3172,5.743622,1.600113
0.023285,5.827087,1.69429
0.335052,5.904694,1.803574
0.479889,5.893372,1.91571
0.327805,5.781189,2.126373
-0.040222,5.720734,2.497559
-0.298218,5.920853,3.021805
-0.088654,6.421753,3.366363
0.657745,7.066757,3.545273
1.481705,8.026672,3.955734
2.201218,9.637222,4.629929
2.725067,11.718475,5.495316
2.947998,13.749725,6.340347
2.426132,14.63147,6.459824
0.78566,13.878922,5.679688
-1.330353,12.24614,4.562469
-2.957672,10.750137,3.6857
-3.962723,9.688766,3.160721
-4.554459,8.839767,2.787125
-4.87265,8.846756,2.170029
-4.161774,10.969513,1.826645
-3.161957,13.818054,1.876755
-2.601852,14.974991,2.174759
-2.097611,13.909546,2.65477
-1.771622,11.153473,3.149063
-1.544922,7.887939,3.432449
-1.340347,5.566834,2.991318
-1.181702,4.570236,1.840958
-0.645264,4.827713,0.453979
0.519943,5.893188,-0.593262
2.371017,7.384308,-1.75412
3.884567,8.853378,-3.055786
4.345795,9.954193,-3.911209
4.367142,10.897629,-4.254013
4.380325,11.613266,-4.067474
4.002029,11.700516,-3.367386
3.1763,11.03952,-2.273972
2.146149,9.860291,-1.246612
0.844681,8.684433,-0.417099
-0.772095,7.768814,0.434174
-2.301666,7.392212,1.118545
-3.113663,7.714539,1.167847
-3.222015,8.375427,0.893478
-2.516312,8.978699,0.303848
-1.254806,9.498901,-0.340012
0.336548,9.852539,-0.942429
1.748215,9.903778,-1.423981
2.808136,9.597534,-1.590164
3.427917,9.180481,-1.383057
3.707489,8.988831,-0.995071
3.58876,9.020493,-0.710297
2.961945,9.152939,-0.645569
1.915665,9.131973,-1.065033
0.942307,8.949158,-1.382156
0.398575,8.642349,-1.239777
0.226273,8.350342,-1.003342
0.370392,8.196793,-1.007233
0.867783,8.181702,-1.44809
1.345688,8.36023,-2.003922
1.448319,8.650726,-2.288376
1.228989,8.903717,-2.289414
0.948578,9.142548,-1.992645
0.563873,9.332687,-1.644592
0.11792,9.307968,-1.34584
-0.211136,9.195297,-0.953613
-0.304718,9.001816,-0.934433
-0.125839,8.909027,-1.162994
0.226456,9.024872,-1.368545
0.83728,9.393249,-1.578934
1.304932,10.047348,-1.914581
1.568665,10.446609,-2.496887
1.833572,10.498154,-2.642212
2.436218,10.289322,-2.130051
3.179428,9.948074,-1.878311
3.715225,10.064377,-1.611755
3.873734,10.507324,-1.613098
3.297134,10.98262,-1.540314
2.346146,11.174988,-1.173065
1.414017,11.087906,-0.509766
0.708191,10.935043,0.09845
0.322983,11.074966,0.282486
0.976212,12.208862,0.335495
1.641754,14.194397,-0.042114
1.544373,15.047211,-1.112396
1.461868,14.771729,-1.380005
1.862045,13.577362,-1.02623
1.825165,12.110489,-0.753098
0.962738,10.660736,-0.855774
-0.16629,9.673599,-1.032928
-1.050293,9.053162,-0.676697
-1.908951,8.169815,-0.859436
-1.991074,8.273392,-0.728958
-1.028992,10.009354,-0.19397
-0.13266,13.052521,0.23735
-0.23439,15.305527,-1.282288
-1.324478,15.823379,-3.551468
-1.935379,14.89946,-5.123962
-1.712814,13.214508,-4.794663
-1.318909,11.942917,-3.396393
-0.860474,10.89212,-2.608597
-0.655594,10.437714,-2.126205
-0.493866,10.105026,-1.795822
-0.428284,9.661972,-1.742996
-0.52034,9.186844,-1.463348
0.066818,8.744904,-1.299454
0.615448,8.342972,-0.601395
0.980255,7.969437,-0.002457
1.163117,7.48288,0.450363
1.065277,6.891907,0.837875
1.151459,6.253037,0.839111
0.813156,5.727203,1.011505
0.484726,5.221466,0.925598
0.170898,5.062683,0.76355
-0.307617,5.0793,0.681046
-0.661621,5.150528,0.403778
-0.769775,5.359573,0.422089
-0.678818,5.706741,0.540283
-0.419678,5.934082,0.608276
-0.194489,6.074188,0.661636
-0.249847,6.034317,0.928848
-0.510269,5.890717,1.236587
-0.645844,5.767761,1.699753
-0.816483,5.616684,2.15181
-0.616333,5.868042,2.833679
-0.099503,6.499298,3.722138
0.5327,7.49527,4.504654
1.20697,9.327682,5.480621
1.623474,11.638535,6.141693
1.950073,13.792419,6.297348
1.949158,14.978821,5.911423
1.366333,14.496414,5.127014
0.112076,12.829544,4.389511
-0.878479,11.062714,4.14035
-1.673279,9.543884,4.022324
-2.273117,8.161377,3.512604
-2.585434,7.384537,2.709076
-1.975326,8.806198,2.871292
0.011063,12.425964,4.322632
1.330032,14.811935,4.202423
1.731583,14.822678,3.89798
0.554169,13.121368,2.05658
-0.76712,10.13147,-0.406845
-2.523071,7.449371,-0.634125
-3.606781,5.837357,-0.118805
-2.84079,5.830231,-0.262436
-1.948944,6.615128,-0.936279
-0.637177,7.48172,-1.801788
0.720139,8.53122,-2.52121
1.386948,9.399292,-3.203796
2.328568,10.2966,-3.527573
3.551727,11.044418,-3.280075
4.147995,11.274231,-2.333252
3.995865,10.662231,-1.461685
3.264587,9.427841,-1.053238
2.024322,8.273209,-0.060913
0.377487,7.867554,0.635712
-0.81958,8.311264,0.243561
-1.190338,9.070419,-0.569046
-1.083405,9.458557,-1.001083
-0.647583,9.44133,-0.871399
0.123596,9.184006,-0.641953
1.210297,8.670074,-0.807404
2.130783,8.345474,-0.903061
2.77179,8.433533,-0.799942
3.115677,8.806488,-0.615784
2.857742,9.257965,-0.726974
2.044006,9.481995,-1.06694
1.253082,9.388519,-1.301834
0.667282,9.067474,-1.220169
0.454529,8.693878,-1.042206
0.589813,8.158402,-0.895523
0.878204,8.002991,-0.935288
1.191482,8.165253,-1.159973
1.404282,8.542725,-1.510208
1.395386,8.928238,-1.62883
1.254562,9.131622,-1.405319
1.164658,9.192886,-0.974091
1.041641,9.175354,-0.593872
0.860535,9.100647,-0.547394
0.618118,8.97609,-0.686279
0.51889,8.913986,-0.911377
0.645981,9.02858,-0.947967
0.901184,9.434967,-0.826508
1.110642,9.996216,-1.140533
1.172424,10.385696,-1.645615
1.323547,10.565948,-1.878784
1.689453,10.527878,-1.729553
2.268234,10.471603,-1.566772
2.886841,10.502716,-1.320984
3.126114,10.720398,-0.902069
2.916489,11.054413,-0.651627
2.248581,11.292404,-0.491425
1.53244,11.502548,-0.266708
1.422607,12.296143,0.143066
1.846054,13.539429,0.288528
2.159393,14.06369,-0.181671
2.068588,13.914185,-0.752808
1.786896,13.452438,-1.603561
1.493332,12.794052,-2.110123
0.664642,12.043625,-1.761353
-0.569916,11.104401,-0.982498
-1.37674,10.169525,-0.457596
-1.903961,9.403854,-0.253754
-2.254364,8.91922,-0.164841
-1.99675,9.674866,0.017822
-1.177521,11.635574,-0.227417
-0.833481,13.557602,-1.349014
-1.227173,14.750626,-3.220245
-1.222015,14.311005,-4.481216
-0.772659,12.98526,-4.301636
-0.075241,11.654755,-3.02504
0.44957,10.891235,-1.629211
0.47403,10.250565,-0.649185
0.256668,9.639847,-0.434601
0.073074,9.089874,-0.529099
0.084885,8.414246,-0.696777
0.121536,7.967239,-0.522827
0.449158,7.571243,-0.142288
0.71225,7.149094,0.321472
1.060638,6.672928,0.613571
1.035553,6.282913,1.079285
0.920502,5.80603,1.291138
0.605057,5.421799,1.172363
0.146729,5.248215,0.983566
-0.266129,5.17189,0.607208
-0.740234,5.325195,0.2603
-0.871368,5.5811,0.03833
-0.957916,5.896576,0.076447
-0.66832,6.134491,0.06308
-0.41185,6.35585,0.407669
-0.488663,6.528259,0.772827
-1.017563,6.684113,1.124573
-1.463364,6.592117,1.456039
-1.603195,6.414566,1.813431
-0.946747,6.337875,2.237518
0.074539,6.812408,3.011032
0.980164,7.920059,4.112976
1.672699,9.774979,5.363892
1.987259,11.928345,5.729065
2.30011,14.017563,5.161987
2.402435,15.046249,4.147461
2.210236,14.507889,3.165619
1.748077,13.000534,2.760956
0.834763,11.552307,3.013229
-0.164734,10.33786,3.119369
-1.431839,9.179367,2.663345
-2.234238,8.1884,1.89624
-2.847565,7.929642,1.438919
-1.814652,10.518539,2.671738
-0.275589,12.97023,2.872238
0.304321,12.897507,3.00885
-0.468872,11.487732,1.605942
-1.374481,10.0522,-0.193161
-1.930359,8.744705,-0.333298
-2.333008,8.283981,0.415955
-2.473785,8.612778,0.457779
-2.230209,8.82579,-0.160614
-1.178619,8.698379,-0.706299
-0.116211,8.011795,-1.428116
0.526031,7.393143,-2.505402
1.238068,7.524033,-3.286423
2.056503,8.434372,-2.938782
3.216614,9.551346,-2.123749
4.027451,10.404678,-1.560318
4.019363,10.665298,-1.552231
3.574463,10.301498,-1.881271
2.217773,9.738144,-1.681412
1.057343,9.360992,-1.023102
0.046646,9.080078,-0.317047
-0.537704,9.162003,0.029678
-0.54628,9.460739,0.01358
-0.062637,9.581726,-0.314316
0.582733,9.310196,-0.941589
0.828003,8.906906,-1.241013
1.192413,8.627167,-1.449005
1.336121,8.751343,-1.541656
1.349243,9.064743,-1.439026
1.399338,9.315369,-1.343658
1.454468,9.352631,-1.294373
1.173264,9.347259,-1.166626
1.375198,9.164841,-1.030502
1.356308,8.910904,-0.919388
1.598938,8.705505,-1.135071
1.630631,8.73259,-1.363663
1.775711,8.884857,-1.793716
1.666138,9.202209,-1.961533
1.469955,9.472488,-1.896683
1.101715,9.562317,-1.573486
0.860138,9.457947,-1.091431
0.79779,9.340912,-0.678391
0.877914,9.25415,-0.385574
1.048813,9.312546,-0.436523
1.126617,9.323441,-0.844055
1.165268,9.337677,-1.221542
1.148804,9.369858,-1.442322
1.125534,9.394913,-1.389572
1.238403,9.572403,-1.245254
1.207123,9.877289,-1.275314
1.104248,10.191391,-1.678726
1.077087,10.380188,-2.025436
1.248596,10.250443,-2.052826
1.430649,10.042755,-1.607742
1.662842,10.118423,-1.027313
1.797775,10.373291,-0.809753
1.80928,10.621155,-0.877823
1.430771,10.675873,-0.874725
0.857468,10.461868,-0.720123
0.49585,10.211243,-0.4216
0.594254,10.37825,0.147873
1.089813,11.297363,0.404465
1.721771,12.27832,0.223785
2.143234,12.469513,-0.219238
2.245438,12.165344,-0.596939
2.115585,12.083939,-0.933243
1.886368,12.052582,-1.227951
1.284668,11.665253,-1.34285
0.221558,10.876373,-1.159042
-0.615112,10.092484,-0.915237
-1.302261,9.584732,-1.09639
-1.909576,9.40155,-1.46846
-2.391678,9.720306,-1.740524
-2.59996,10.549606,-1.856979
-2.533356,11.626907,-2.028122
-2.135223,12.527191,-2.11145
-1.392746,12.750443,-2.075317
-0.526627,12.224075,-1.91272
0.127167,11.323288,-1.341782
0.441116,10.402634,-0.766098
0.519241,9.481567,-0.306152
0.493469,8.598572,0.024826
0.517349,7.892029,-0.001877
0.601791,7.385819,-0.13855
0.790695,7.125076,-0.188705
0.989487,7.017914,-0.054245
1.296295,6.925919,0.100967
1.300476,6.826325,0.308899
0.954834,6.684601,0.481903
0.422943,6.531693,0.63385
-0.358658,6.363281,0.688187
-1.245239,6.256241,0.667496
-2.007965,6.280914,0.709763
-2.389587,6.392349,0.763657
-2.385895,6.611084,0.793045
-1.956482,7.029282,0.989822
-1.289749,7.513611,1.205627
-0.586823,8.046219,1.450729
0.276733,8.782898,1.971039
1.133591,9.724228,2.728485
1.679886,10.610794,3.416031
1.718613,11.083893,3.686111
1.390625,10.976959,3.492096
0.969406,10.582199,3.146057
0.579773,10.221832,2.810959
0.307678,10.062317,2.593231
0.088272,10.136765,2.308655
-0.145554,10.266953,1.767349
-0.439438,10.355423,0.985672
-0.672424,10.215485,-0.00177
-0.947906,9.486069,-0.922653
-1.292099,8.470764,-1.108765
-1.609406,7.80722,-0.326706
-1.716202,7.712463,0.857315
-1.687408,8.288177,1.658478
-1.568054,9.562546,1.943405
-1.282379,11.120895,1.673706
-0.918762,12.226898,0.831772
-0.687546,12.518921,-0.028305
-0.421295,12.204971,-0.42804
0.12117,11.630478,-0.316132
0.706802,10.934921,-0.039032
0.878372,10.149139,0.112549
0.333359,9.396149,0.2043
-0.555176,8.778091,0.154785
-1.332535,8.315369,0.123398
-1.879547,8.04892,0.225479
-1.996368,8.10466,0.402863
-1.716949,8.497376,0.50737
-1.238327,8.942246,0.317795
-0.616669,9.406845,0.065033
0.21196,9.94957,-0.148849
1.016113,10.404846,-0.393494
1.466415,10.442688,-0.776031
1.617569,10.127274,-1.08641
1.597748,9.653351,-1.097717
1.578491,9.297913,-0.895706
1.590713,8.982803,-0.61676
1.646271,8.791992,-0.422791
1.660828,8.721512,-0.530396
1.678635,8.818054,-0.766235
1.821808,9.104218,-1.106827
1.912537,9.437592,-1.432175
1.95163,9.699219,-1.711655
1.810745,9.788727,-1.915482
1.526764,9.782806,-1.959732
1.25737,9.769211,-1.705383
1.052917,9.753052,-1.408585
0.793854,9.651581,-1.080277
0.56369,9.563614,-0.791519
0.418747,9.563553,-0.693466
0.396072,9.613602,-0.644104
0.420212,9.638977,-0.771454
0.57399,9.664001,-0.942001
0.668213,9.587891,-1.130127
0.650497,9.49295,-1.438003
0.847,9.460236,-1.474213
1.027161,9.564453,-1.456039
1.095306,9.600266,-1.582916
1.083893,9.57811,-1.697479
1.01561,9.522247,-1.759872
1.00676,9.451584,-1.54335
1.208832,9.550003,-1.234528
1.333816,9.740891,-0.95845
1.327576,9.8806,-0.884827
1.257294,9.966522,-0.913971
1.042221,9.869247,-1.194519
0.738632,9.626755,-1.395142
0.440109,9.506271,-1.459778
0.163986,9.426697,-1.461029
-0.037628,9.492493,-1.587067
-0.293426,9.502945,-1.845215
-0.376358,9.468384,-2.077881
-0.447983,9.40979,-2.262863
-0.334808,9.380951,-2.269531
-0.091278,9.430359,-2.118256
0.219925,9.445389,-2.021667
0.738144,9.388916,-1.975433
1.203003,9.425781,-1.890381
1.602829,9.468323,-1.941452
1.73468,9.40564,-2.139084
1.640503,9.329849,-2.299866
1.347183,9.195877,-2.375092
0.985718,9.148239,-2.409103
0.668045,9.116531,-2.316849
0.374619,9.194672,-2.03624
0.162872,9.292038,-1.953079
0.030426,9.372498,-1.957764
-0.045914,9.414307,-2.094757
-0.189972,9.309235,-2.06221
-0.207367,9.140976,-1.984497
-0.136612,9.029953,-1.812698
-0.071136,8.998077,-1.730835
0.046112,9.139465,-1.694061
0.045471,9.232513,-1.809357
-0.026901,9.29158,-1.836288
