frame,acc x,acc y,acc z
581,0.280217,9.651929,-2.751877
582,0.301772,9.553733,-2.694397
583,0.359253,9.481882,-2.761458
584,0.411943,9.448352,-2.828518
585,0.584385,9.520203,-2.852468
586,0.62031,9.572893,-3.036885
587,0.661025,9.544153,-3.079995
588,0.58678,9.424402,-3.017725
589,0.560435,9.357341,-2.993774
590,0.421523,9.290281,-2.986589
591,0.423918,9.371711,-2.821333
592,0.325723,9.443562,-2.646497
593,0.220342,9.479487,-2.502795
594,-0.01437,9.606423,-2.689607
595,-0.01437,9.606423,-2.689607
596,-0.071851,9.668694,-2.890789
597,-0.045505,9.548943,-2.945874
598,-0.00479,9.584868,-2.996169
599,0.100591,9.541758,-2.933899
600,0.122146,9.704619,-2.881208
601,0.277822,10.087822,-2.665657
602,0.387993,10.46384,-2.383044
603,0.507744,10.571616,-2.265688
604,0.754431,10.4351,-2.402205
605,0.907712,10.126143,-2.502795
606,1.005908,9.81479,-2.660867
607,0.984353,9.637559,-2.720742
608,0.756826,9.589658,-2.696792
609,0.328118,9.81958,-2.464475
610,-0.117356,10.104587,-2.119592
611,-0.627495,10.413545,-1.918411
612,-0.986748,10.576406,-1.741179
613,-1.22625,10.624307,-1.398691
614,-1.228645,10.542876,-1.185535
615,-1.020278,10.545271,-1.116079
616,-0.656235,10.332114,-1.266965
617,-0.656235,10.332114,-1.266965
618,0.210762,9.960886,-1.559158
619,0.433499,10.011182,-1.573528
620,0.387993,10.085427,-1.642983
621,0.050295,10.023157,-1.765129
622,-0.335303,10.085427,-2.040557
623,-0.742456,10.233918,-2.265688
624,-1.094524,10.322534,-2.332749
625,-1.290916,10.315349,-2.42855
626,-1.26936,10.262659,-2.459685
627,-1.058599,10.095007,-2.524351
628,-0.665815,9.83874,-2.699187
629,-0.340093,9.575288,-2.689607
630,-0.00958,9.402847,-2.818938
631,0.179626,9.388477,-2.818938
632,0.378413,9.522598,-2.754272
633,0.308958,9.661509,-2.646497
634,0.129331,9.754915,-2.514771
635,-0.083826,9.83395,-2.469265
636,-0.126936,9.872271,-2.464475
637,-0.153281,9.78605,-2.332749
638,-0.04311,9.556128,-2.342329
639,0.045505,9.362131,-2.596201
640,0.203577,9.455537,-2.632126
641,0.270637,9.651929,-2.648892
642,0.239502,9.831555,-2.665657
643,0.167651,9.975256,-2.641707
644,0.119751,10.102192,-2.39502
645,0.148491,10.212363,-2.088457
646,0.249082,10.226733,-1.916016
647,0.371228,9.960886,-1.781895
648,0.675396,10.018367,-1.659749
649,0.756826,10.202783,-1.475332
650,0.522114,10.195598,-1.427432
651,-0.021555,10.334509,-1.525627
652,-0.603545,10.674602,-1.834585
653,-1.092129,10.916499,-2.294429
654,-1.223855,11.244617,-2.596201
655,-1.137634,11.572734,-2.529141
656,-0.984353,11.431428,-2.117197
657,-0.292192,11.381133,-1.83219
658,0.234712,11.352393,-1.329236
659,0.354463,11.498489,-1.082549
660,-0.232317,12.339141,-1.161584
661,-1.209485,12.8876,-1.307681
662,-1.602268,13.163027,-0.673
663,-1.092129,13.632451,0.421523
664,0.184417,14.595249,1.523232
665,1.422642,15.153289,2.014211
666,1.992656,14.439573,2.47645
667,2.318379,12.827725,2.732717
668,2.993774,11.68051,2.792593
669,3.815266,11.242222,2.859653
670,4.026028,11.07936,2.531536
671,2.054927,10.878179,0.407153
672,0.431104,11.587104,-1.700464
673,-0.65384,12.410991,-2.792593
674,-0.996328,13.143867,-2.818938
675,-1.060994,13.383369,-2.46687
676,-1.029858,13.088782,-2.550696
677,-0.622705,12.923525,-2.914739
678,0.088616,12.89718,-3.527864
679,0.807122,12.810959,-3.820056
680,1.281335,12.808564,-3.812871
681,1.439407,12.837305,-3.547024
682,1.262175,12.693604,-3.240461
683,0.866997,12.475657,-3.0297
684,0.337698,11.982283,-3.103945
685,-0.172441,11.555969,-3.000959
686,-0.416733,11.254197,-2.644102
687,-0.687371,10.947634,-2.390229
688,-0.819097,10.504556,-2.184258
689,-0.890947,9.999207,-2.059717
690,-0.692161,9.517808,-2.136357
691,-0.280217,9.144185,-2.284849
692,0.296982,8.696316,-2.46208
693,0.984353,8.198152,-2.385439
694,1.614243,7.690408,-2.392625
695,2.208208,7.055728,-2.232158
696,2.586621,6.531218,-1.83219
697,2.802173,6.018684,-1.243015
698,2.931504,5.4822,-0.878972
699,3.070415,4.964875,-0.764011
700,3.168611,4.560117,-0.692161
701,3.302732,4.196074,-0.792751
702,3.360212,3.946992,-1.003513
703,3.523074,3.836821,-1.19751
704,3.6548,3.729045,-1.262175
705,3.65001,3.877537,-1.101709
706,3.602109,4.277505,-0.390388
707,3.362607,5.012776,0.479004
708,2.960244,6.385122,2.045347
709,2.454895,8.396938,4.150569
710,1.628613,11.129656,6.433022
711,0.747246,14.022839,8.291558
712,0.150886,16.326848,9.477092
713,-0.201182,17.392632,10.380015
714,-0.419128,16.882493,10.147698
715,-0.479004,14.432388,8.358618
716,-0.61073,10.930869,6.258186
717,-0.208367,7.843689,4.425996
718,1.350791,7.156318,3.228486
719,3.935017,12.387041,2.117197
720,7.067703,18.992505,1.700464
721,5.225933,19.619401,5.424719
722,2.143542,19.619401,8.054451
723,1.298101,13.198953,-0.754431
724,-0.536484,3.568579,-9.728569
725,-2.244133,-2.483635,-13.515095
726,0.134121,-3.127896,-7.843689
727,1.077759,-1.051414,-2.859653
728,0.728086,2.622546,-3.903882
729,-0.134121,6.665339,-7.898774
730,-0.119751,11.723621,-9.8579
731,-0.598755,16.226257,-7.292834
732,-1.561553,17.344731,-2.799778
733,-2.732717,14.688655,-0.325723
734,-2.548301,11.788286,-0.802332
735,-0.126936,9.81,-1.755549
736,2.330354,8.463999,-1.923201
737,2.725532,7.865244,-1.671724
738,1.944756,8.080796,-1.22625
739,0.864602,8.820857,-1.367556
740,-0.184417,9.807605,-1.765129
741,-0.809517,10.626702,-2.196233
742,-1.013093,11.448193,-2.220183
743,-1.089734,11.881692,-1.738784
744,-0.926873,11.900852,-1.214275
745,-0.704136,11.532019,-1.128054
746,-0.498164,11.072175,-1.123264
747,-0.232317,10.686577,-1.16877
748,0.05748,10.42073,-0.953218
749,0.198787,10.042317,-0.58678
750,0.397573,9.84832,-0.344883
751,0.426313,9.970466,-0.60115
752,0.323328,10.097402,-1.23583
753,0.088616,10.049502,-1.872905
754,-0.098196,9.817185,-2.304009
755,-0.225132,9.433982,-2.560276
756,-0.210762,9.225615,-2.572251
757,-0.016765,9.383687,-2.488425
758,0.160466,9.520203,-2.246528
759,0.337698,9.685459,-1.956731
760,0.328118,9.606423,-1.738784
761,0.261057,9.563313,-1.652563
762,0.146096,9.898616,-1.425037
763,-0.016765,10.40636,-0.833467
764,-0.273032,10.710527,0.205972
765,-0.66821,10.880574,0.934058
766,-1.348396,11.02667,1.233435
767,-2.359094,11.342813,1.094524
768,-3.209326,11.896062,0.593965
769,-3.64522,12.540322,0.213157
770,-3.309917,12.913945,0.119751
771,-2.39502,12.784614,0.445474
772,-1.2502,13.043276,1.089734
773,-0.943638,14.865886,1.772314
774,-1.288521,16.314873,2.531536
775,-1.384321,16.642991,3.223696
776,-0.483794,16.58551,4.976851
777,1.159189,16.853752,6.433022
778,1.614243,15.855029,5.898933
779,0.941243,13.390554,2.708767
780,0.958008,11.203901,-0.804727
781,1.415457,10.233918,-1.858535
782,1.642983,10.540481,-1.980681
783,0.546064,12.513977,-3.415298
784,-0.215552,15.158079,-4.411626
785,-0.689766,16.59509,-4.392466
786,-0.464634,16.365168,-3.666775
787,0.136516,15.361655,-3.556604
788,0.66342,14.164146,-4.023633
789,1.238225,13.177397,-4.476292
790,1.810635,12.626543,-4.564907
791,2.260898,12.650493,-4.076323
792,2.648892,12.827725,-3.374583
793,3.079995,12.681628,-3.180586
794,3.070415,12.406201,-2.890789
795,2.572251,11.67093,-2.941084
796,2.016606,10.650652,-3.127896
797,1.674119,9.596843,-3.302732
798,1.408271,8.394543,-3.240461
799,1.108894,7.340735,-2.893184
800,0.821492,6.308481,-2.584226
801,0.684976,5.364844,-2.373464
802,0.783171,4.392466,-2.426155
803,0.912502,3.506309,-2.792593
804,1.228645,2.866838,-3.113525
805,1.460962,2.531536,-3.372188
806,1.599873,2.43334,-3.365002
807,1.659749,2.696792,-3.238066
808,1.726809,3.348237,-2.943479
809,1.645378,4.263135,-2.315984
810,1.654958,5.307363,-1.458567
811,1.585503,6.251001,-0.819097
812,1.262175,6.993457,-0.165256
813,0.847837,7.721543,0.835862
814,0.756826,8.53585,2.304009
815,0.986748,9.366921,4.200864
816,1.403481,10.471025,6.907236
817,1.920806,11.606265,9.14179
818,2.584226,12.499607,10.265054
819,2.857258,13.376184,11.543994
820,2.533931,13.986914,11.711646
821,2.524351,13.903088,10.109377
822,3.685935,13.256433,7.232959
823,4.751719,11.903247,4.404441
824,5.47262,10.071057,2.086062
825,5.836663,8.229287,0.627495
826,6.648574,8.114326,0.852627
827,8.150251,13.038486,2.083667
828,9.553733,19.524199,2.742297
829,6.07377,19.619401,5.853428
830,2.244133,16.410674,3.336262
831,0.718506,9.750125,0.172441
832,-1.223855,3.973337,-2.612966
833,-2.042952,0.756826,-5.819897
834,0.158071,0.584385,-6.229446
835,1.700464,1.482517,-4.90021
836,1.18793,4.497847,-5.879773
837,-0.026345,7.91554,-6.825806
838,-1.142424,11.196716,-5.807922
839,-2.136357,13.996494,-4.334985
840,-3.273992,14.858701,-2.830913
841,-4.84752,13.857583,-1.163979
842,-5.829478,12.063713,-0.742456
843,-4.699028,11.014695,-1.034648
844,-0.922083,10.657837,-0.814307
845,1.056204,8.887917,-1.379531
846,2.397415,7.625742,-1.86572
847,2.744692,7.41498,-1.487307
848,2.763853,8.076006,-0.730481
849,2.133962,9.20885,-0.555645
850,1.096919,10.262659,-1.17356
851,0.217947,11.053015,-1.805845
852,-0.325723,11.381133,-2.095642
853,-0.744851,11.177556,-1.83219
854,-0.960403,11.0123,-1.537603
855,-1.108894,10.629097,-1.453777
856,-1.132844,10.255474,-1.700464
857,-1.092129,9.992021,-1.85135
858,-0.900527,9.929751,-1.911226
859,-0.787961,10.006392,-1.398691
860,-0.61073,10.39199,-0.713716
861,-0.58678,10.686577,-0.673
862,-0.443079,10.842253,-1.305286
863,-0.565225,10.140513,-1.745969
864,-0.787961,9.596843,-2.105222
865,-1.046624,9.553733,-2.236948
866,-1.125659,10.186018,-1.872905
867,-1.089734,10.873389,-1.058599
868,-0.850232,11.096125,-0.376018
869,-0.450264,10.894944,-0.04311
870,0.337698,10.46384,0.114961
871,1.346001,10.370435,0.60115
872,2.275269,10.533296,1.518442
873,2.653682,10.47821,2.232158
874,2.378254,10.597961,2.368674
875,1.470542,10.966794,1.592688
876,-0.067061,11.611055,0.673
877,-2.045347,12.114009,-0.229922
878,-3.800896,12.24334,-0.931663
879,-4.660708,12.106824,-1.135239
880,-4.121829,12.30082,-0.457449
881,-3.0297,12.856465,0.900527
882,-2.811753,14.77248,2.002236
883,-3.321892,15.593972,2.117197
884,-3.05365,15.541282,2.926714
885,-1.575923,15.895745,4.591252
886,0.914897,16.851357,6.035449
887,1.561553,15.840659,4.811594
888,1.683699,13.323494,1.398691
889,2.121987,11.481724,-0.874182
890,2.459685,11.158396,-1.118474
891,1.484912,11.359578,-2.150728
892,0.390388,13.189373,-3.760181
893,-0.560435,15.634688,-4.88584
894,-0.747246,16.50887,-4.89063
895,-0.016765,16.027471,-4.258345
896,0.823887,14.904207,-3.932622
897,1.544788,13.946199,-4.047583
898,2.112407,13.364209,-4.267925
899,2.430945,13.266013,-3.748206
900,2.696792,13.321099,-2.931504
901,2.883604,13.277988,-2.47166
902,3.04407,12.521162,-2.852468
903,3.10155,11.69967,-3.388953
904,2.651287,10.590776,-3.769761
905,2.296824,9.534573,-4.109854
906,2.059717,8.55022,-4.138594
907,1.868115,7.580237,-3.748206
908,1.587898,6.665339,-3.235671
909,1.23104,5.671406,-2.799778
910,0.946033,4.715793,-2.581831
911,0.845442,3.853586,-2.605781
912,0.802332,3.273992,-2.794988
913,0.804727,2.933899,-2.965034
914,0.821492,2.763853,-3.09676
915,0.799937,2.833308,-3.415298
916,0.749641,3.118315,-3.420088
917,0.783171,3.614084,-3.175796
918,0.802332,4.3278,-2.814148
919,0.974773,4.988826,-2.40939
920,1.008303,5.637876,-1.619033
921,0.59157,6.294111,-0.514929
922,0.603545,7.491621,1.209485
923,0.732876,9.374106,3.568579
924,0.538879,11.831396,6.730005
925,0.555645,14.609619,9.718989
926,0.950823,16.815432,11.091335
927,1.549578,17.22019,11.258987
928,1.662144,16.003521,11.299702
929,1.28373,13.821658,9.740544
930,2.026187,12.169094,6.988667
931,3.456013,10.708132,4.24637
932,4.90979,9.055569,1.911226
933,6.035449,7.177874,0.452659
934,6.828201,5.853428,-0.102986
935,7.441326,6.526428,0.258662
936,7.898774,10.708132,0.112566
937,8.440049,17.076489,1.2502
938,6.454578,19.619401,5.937253
939,1.475332,19.619401,5.087021
940,-0.091011,12.504397,-0.294587
941,-3.467988,5.249883,-3.968547
942,-4.682263,1.496887,-4.921765
943,-0.182021,0.682581,-6.643784
944,2.143542,0.570015,-6.358777
945,1.738784,3.168611,-5.652246
946,0.081431,6.195916,-6.327642
947,-1.786685,9.045989,-7.084468
948,-3.661985,12.633728,-5.403164
949,-4.672683,15.752043,-3.302732
950,-5.645061,16.425044,-1.528022
951,-5.204377,15.189214,-0.673
952,-0.809517,12.952266,-0.656235
953,1.86093,9.287886,-2.076482
954,3.982917,6.876101,-2.387834
955,4.552932,6.1073,-1.26936
956,3.741021,6.634204,-0.340093
957,0.895737,7.723938,-0.735271
958,-0.651445,10.166858,-1.353186
959,-1.391506,12.449312,-1.511257
960,-1.750759,13.47438,-1.22146
961,-1.978286,12.593013,-0.931663
962,-2.256108,11.194321,-0.914897
963,-2.40939,9.939331,-1.113684
964,-2.263293,9.529783,-0.967588
965,-1.762734,9.817185,-0.5772
966,-1.18793,10.332114,-0.03832
967,-0.759221,10.808723,0.105381
968,-0.201182,11.112891,-0.205972
969,0.105381,10.741663,-0.912502
970,0.426313,10.020762,-1.887275
971,0.66821,9.21364,-2.641707
972,0.823887,8.861572,-2.874023
973,0.898132,9.201665,-2.387834
974,0.771196,9.82437,-1.544788
975,0.433499,10.044712,-0.936453
976,0.134121,10.083032,-0.804727
977,0.165256,10.279424,-0.869392
978,0.179626,10.152488,-0.711321
979,0.349673,9.501042,-0.325723
980,0.464634,9.050779,0.483794
981,0.419128,9.508228,1.281335
982,-0.476609,10.130933,1.585503
983,-2.162703,11.01709,1.288521
984,-4.464316,11.809841,0.56283
985,-6.349197,12.387041,-0.617915
986,-6.593489,12.684023,-1.219065
987,-4.744534,12.983401,-0.902922
988,-2.284849,12.2146,0.203577
989,0.239502,11.146421,1.714834
990,2.5004,11.565549,2.907554
991,3.537444,14.803616,4.061953
992,2.064507,16.825012,4.912185
993,1.144819,16.611855,6.104905
994,1.003513,14.992822,5.989944
995,1.377136,13.979729,4.26553
996,2.052532,13.601316,2.46208
997,2.792593,13.230088,1.171165
998,2.876418,12.91155,-0.035925
999,0.814307,12.604988,-2.450105
1000,-0.55804,14.552139,-4.356541
1001,-1.456172,16.314873,-5.51573
1002,-2.030977,16.211887,-5.786367
1003,-1.683699,15.689773,-5.556445
1004,-0.682581,15.792759,-5.180427
1005,0.217947,15.98436,-3.956572
1006,0.804727,16.156802,-2.342329
1007,1.516047,15.589182,-1.887275
1008,2.265688,14.362932,-2.339934
1009,2.988984,12.92113,-2.897974
1010,3.314707,11.522439,-3.321892
1011,2.936294,10.351274,-3.472778
1012,2.330354,9.271121,-3.379373
1013,1.731599,8.351433,-3.11592
1014,1.013093,7.434141,-2.608176
1015,0.323328,6.480923,-2.136357
1016,-0.136516,5.470225,-2.014211
1017,-0.328118,4.512217,-2.239343
1018,-0.419128,3.68354,-2.665657
1019,-0.383203,3.130291,-3.027305
1020,-0.093406,2.931504,-3.285967
1021,0.150886,3.003354,-3.410508
1022,0.404758,3.343447,-3.479963
1023,0.579595,3.906277,-3.467988
1024,0.742456,4.600833,-3.369792
1025,0.735271,5.343289,-2.912344
1026,0.886157,5.783972,-2.529141
1027,1.144819,5.901328,-2.236948
1028,1.616638,5.630691,-2.198628
1029,2.181863,5.398374,-2.157913
1030,2.718347,5.475015,-1.664539
1031,3.408113,6.353987,-0.361648
1032,4.021238,8.521479,3.051255
1033,3.810476,12.600198,9.678274
1034,2.133962,17.878821,15.376025
1035,1.427432,19.619401,18.638042
1036,1.415457,19.619401,17.689614
1037,1.78908,18.997295,11.61345
1038,3.417693,13.919854,6.109695
1039,4.435576,9.912986,2.541116
1040,7.220984,4.658313,-0.064666
1041,7.220984,4.658313,-0.064666
1042,9.182505,5.47741,-0.756826
1043,10.138118,7.666458,-4.150569
1044,9.005273,12.856465,-2.521956
1045,6.744375,19.619401,4.196074
1046,0.895737,19.619401,7.261699
1047,-1.324446,13.412109,4.014053
1048,-5.388794,7.625742,-2.732717
1049,-8.198152,3.606899,-5.49178
1050,-6.11688,2.754272,-8.849597
1051,-1.750759,3.681145,-8.284373
1052,-0.910107,5.412744,-5.225933
1053,-0.366438,8.210127,-3.733835
1054,-1.456172,8.58375,-5.273833
1055,-2.840493,9.697434,-5.139712
1056,-3.788921,11.565549,-3.68354
1057,-4.126619,13.407319,-1.678909
1058,-2.5004,15.265854,0.155676
1059,0.079036,14.791641,0.56762
1060,1.659749,11.335627,-0.285007
1061,2.270479,8.157437,-1.319656
1062,2.435735,6.75635,-1.448987
1063,2.557881,7.058123,-0.682581
1064,2.39981,8.190967,-0.03832
1065,1.587898,9.414822,-0.246687
1066,0.479004,10.538086,-0.914897
1067,-0.548459,11.127261,-1.384321
1068,-1.21667,11.364368,-1.484912
1069,-1.429827,11.532019,-0.960403
1070,-1.451382,11.498489,-0.270637
1071,-1.322051,11.191926,0.174836
1072,-1.24541,10.638677,0.124541
1073,-1.152004,10.049502,-0.172441
1074,-0.979563,9.695039,-0.409548
1075,-0.720901,9.663904,-0.502954
1076,-0.57241,9.951306,-0.373623
1077,-0.474214,10.293794,-0.570015
1078,-0.378413,10.624307,-0.488584
1079,0.02395,10.837463,-0.395178
1080,0.5772,10.231523,0.081431
1081,0.5772,10.231523,0.081431
1082,0.967588,10.166858,0.201182
1083,1.357976,10.140513,0.428708
1084,1.403481,9.558523,0.682581
1085,1.317261,9.244775,1.005908
1086,0.819097,9.592053,1.377136
1087,0.275427,10.171648,1.906436
1088,-0.261057,10.636282,2.141147
1089,-1.23583,10.516531,2.275269
1090,-2.751877,10.207573,1.85135
1091,-4.073928,10.013577,0.907712
1092,-4.490662,10.200388,0.809517
1093,-4.330195,10.696157,1.961521
1094,-3.266807,11.117681,3.333867
1095,-1.386716,11.249407,4.045188
1096,0.759221,11.244617,4.026028
1097,2.612966,12.880415,2.035767
1098,3.130291,14.252761,0.241897
1099,2.732717,13.994099,0.684976
1100,1.990261,13.649216,-0.435894
1101,1.144819,14.190491,-2.239343
1102,0.059875,14.69584,-2.811753
1103,-0.728086,14.482683,-2.888394
1104,-1.417852,14.039604,-3.139871
1105,-1.578318,13.852793,-3.788921
1106,-1.163979,14.504238,-3.956572
1107,-0.368833,15.318545,-3.949387
1108,0.677791,15.347285,-4.229604
1109,1.79387,15.153289,-4.148174
1110,2.596201,14.731765,-3.719465
1111,2.953059,13.579761,-3.319497
1112,2.713557,11.776311,-3.221301
1113,2.385439,9.86748,-3.532654
1114,2.047742,8.334668,-3.875142
1115,1.714834,7.649692,-3.817661
1116,1.008303,7.240144,-3.515889
1117,0.026345,7.062913,-2.986589
1118,-0.526904,6.921606,-2.751877
1119,-1.163979,6.607859,-2.682422
1120,-1.710044,6.124065,-2.624941
1121,-1.628613,5.417534,-3.230881
1122,-1.058599,4.90021,-3.944597
1123,-0.352068,4.655918,-4.102668
1124,0.05269,4.878655,-3.209326
1125,0.902922,5.769602,-1.978286
1126,2.074087,6.809041,-1.017883
1127,2.759063,7.836504,-0.153281
1128,2.543511,8.55501,0.65863
1129,1.973496,8.940608,1.2023
1130,1.460962,9.168135,1.554368
1131,1.130449,9.388477,1.722019
1132,1.142424,9.735754,1.556763
1133,1.413062,9.82437,0.57241
1134,1.755549,9.77168,-0.344883
1135,3.103945,9.877061,-0.469424
1136,3.592529,9.798025,-1.19751
1137,3.367397,10.006392,-3.163821
1138,3.769761,14.350957,-5.479805
1139,3.769761,14.350957,-5.479805
1140,0.749641,15.174844,1.072969
1141,0.749641,15.174844,1.072969
1142,0.143701,12.969031,1.219065
1143,1.020278,10.921289,0.05748
1144,1.738784,9.120234,-1.084944
1145,1.745969,7.692803,-1.786685
1146,1.147214,7.019802,-2.189048
1147,0.392783,7.33834,-2.39502
1148,0.074246,8.325088,-2.548301
1149,-0.105381,9.381292,-2.363884
1150,-0.275427,10.202783,-1.760339
1151,-0.344883,10.612332,-1.25978
1152,-0.282612,10.835068,-0.871787
1153,0.249082,11.02667,-0.213157
1154,0.701741,11.297307,0.529299
1155,0.720901,11.543994,1.020278
1156,0.60594,12.018208,1.096919
1157,0.689766,12.360696,1.068179
1158,1.142424,12.22897,1.065784
1159,1.391506,11.450588,0.883762
1160,1.360371,10.41594,0.306563
1161,1.374741,9.690249,-0.835862
1162,1.350791,9.347761,-1.901646
1163,1.288521,9.326206,-2.49561
1164,1.113684,9.616003,-2.569856
1165,0.773591,9.84832,-2.555486
1166,0.282612,10.018367,-2.47166
1167,-0.217947,10.003997,-2.42376
1168,-0.63468,9.874666,-2.49561
1169,-0.948428,9.944121,-2.653682
1170,-0.938848,10.162068,-2.713557
1171,-0.828677,10.322534,-2.636917
1172,-0.380808,10.296189,-2.335144
1173,0.831072,9.735754,-1.983076
1174,0.831072,9.735754,-1.983076
1175,1.307681,9.589658,-1.690884
1176,1.626218,9.642349,-1.710044
1177,1.755549,9.872271,-1.702859
1178,1.602268,10.027947,-1.621428
