acc x,acc y,acc z
-0.013306,9.27066,-1.642639
-0.012604,9.278305,-1.68454
0.09111,9.347809,-1.738373
0.130371,9.470444,-1.825836
0.155823,9.54451,-1.804001
0.199387,9.639236,-1.734497
0.244492,9.67009,-1.574326
0.230789,9.600357,-1.426681
0.22023,9.52005,-1.241806
0.248657,9.454681,-1.206619
0.2845,9.398834,-1.182159
0.319275,9.4104,-1.282257
0.319214,9.486954,-1.486313
0.272491,9.456131,-1.631363
0.23027,9.47673,-1.802139
0.20369,9.492722,-1.848984
0.179626,9.43721,-1.862228
0.178391,9.381683,-1.882507
0.370087,9.274292,-1.918503
0.50946,9.207764,-1.959091
0.594421,9.156464,-1.877808
0.751007,9.255646,-1.735031
0.773239,9.507202,-1.5979
0.828094,9.624069,-1.489288
0.644943,9.743576,-1.227295
0.593597,9.81488,-1.059128
0.369492,9.798706,-0.804993
0.329559,9.702652,-0.665298
0.167984,9.680801,-0.43782
0.223282,9.648544,-0.467773
0.101532,9.685486,-0.508896
-0.206726,9.716644,-0.470673
-0.292664,9.651077,-0.622971
-0.280914,9.52356,-0.642151
-0.341354,9.508987,-0.647476
-0.174164,9.523209,-0.629608
-0.000732,9.48848,-0.690643
0.001846,9.487762,-0.758759
0.11171,9.524521,-0.769272
0.31517,9.48024,-0.860672
0.497162,9.420334,-0.807312
0.710342,9.385452,-0.718643
0.875198,9.39296,-0.711731
0.982254,9.340347,-0.580048
1.042175,9.371826,-0.433472
1.007736,9.411682,-0.307419
0.91922,9.414368,-0.234955
0.762009,9.374603,-0.190796
0.601135,9.319244,-0.272247
0.435471,9.289658,-0.284836
0.21814,9.212479,-0.308197
-0.033783,9.166733,-0.373215
-0.261459,9.006393,-0.412247
-0.388779,8.955307,-0.403687
-0.386642,9.011871,-0.401352
-0.285782,9.112015,-0.422638
-0.154556,9.186768,-0.572998
0.001801,9.245026,-0.710526
0.208023,9.317825,-0.833984
0.409973,9.418945,-0.974777
0.620178,9.444412,-1.143707
0.800674,9.434097,-1.297302
0.931686,9.427902,-1.43454
0.932648,9.463379,-1.539963
0.87973,9.459076,-1.561432
0.796127,9.573212,-1.542496
0.672134,9.757065,-1.447693
0.523926,10.005356,-1.395737
0.416428,10.234375,-1.289322
0.406586,10.419922,-1.074234
0.448151,10.66153,-0.784561
0.627029,11.040344,-0.491898
0.774384,11.421036,-0.265091
0.720078,11.528717,-0.139053
0.581253,11.43808,0.004562
0.626328,11.230667,0.464478
0.819397,11.064957,0.679398
1.280945,11.125732,0.54303
1.730957,11.484894,0.229858
1.783203,11.883652,-0.124344
1.456909,11.910507,-0.368134
0.755676,11.404037,-0.423019
0.574249,10.85025,-0.464401
0.532913,10.441299,-0.675095
0.443298,10.233047,-0.85556
0.217529,10.076431,-1.175796
-0.267883,9.695511,-1.55101
-0.603806,9.074326,-1.677887
-0.76123,8.58992,-1.686066
-0.897018,8.388443,-1.631546
-1.011581,8.522919,-1.307983
-1.029724,8.686661,-1.319168
-1.341995,8.967468,-1.319061
-1.779236,9.581558,-0.823761
-2.068924,10.493301,-0.140137
-2.368378,11.631104,0.946747
-2.582993,12.513977,1.788956
-2.880279,12.838776,1.910645
-3.262222,12.653564,1.736725
-2.834152,11.901001,1.339325
-1.647461,10.919479,1.079147
-0.162292,9.980133,1.126587
1.559082,9.221924,1.465317
3.029007,8.733276,1.894699
3.945358,8.611786,2.342865
4.275482,8.778671,2.633484
4.222656,9.023193,2.594116
3.752594,9.211639,2.383743
2.905167,9.232193,2.202743
2.012466,9.078461,2.235702
1.159729,8.790665,2.529312
0.342911,8.391098,2.85257
-0.532135,7.911102,2.988693
-1.565476,7.393906,3.022476
-2.436264,6.996231,2.957657
-3.11763,6.715439,2.820831
-3.546417,6.57399,2.582336
-3.688248,6.550583,2.415909
-3.638748,6.652145,2.305588
-3.425827,6.833008,2.214523
-3.072372,6.915298,2.311432
-2.673111,6.881195,2.51358
-2.167435,6.662857,2.850403
-1.66243,6.404266,3.262405
-1.217834,6.225006,3.829452
-0.919296,6.004517,4.26503
-0.737839,5.898102,4.553742
-0.611542,5.885788,4.647446
-0.62262,5.925659,4.649841
-0.678513,5.979446,4.503418
-0.738251,6.002594,4.360901
-0.727463,6.050064,4.207275
-0.692902,6.117264,4.104889
-0.602554,6.119019,4.133698
-0.699921,6.088623,4.404999
-0.928802,6.133301,4.746017
-1.021378,6.38237,5.059814
-0.953781,6.835602,5.574814
-0.822525,7.36647,5.829742
-0.656891,8.120117,5.988907
-0.621185,9.044327,5.862503
-0.51384,9.969299,5.427643
-0.224884,10.643616,4.979462
0.015228,11.210327,4.558121
0.123566,11.395935,4.394531
0.141556,11.341995,4.44278
-0.046051,10.978806,4.797089
-0.348526,10.451111,5.486343
-0.563095,9.881454,6.166657
-0.616165,9.229507,6.542007
-1.118545,8.620041,6.394852
-1.499497,9.472473,6.27858
0.729584,13.61026,7.144806
0.532364,16.409027,4.797699
-1.321198,15.918564,0.682007
-3.057877,13.393768,-2.243256
-3.341232,11.438263,-1.916824
-2.995239,9.978699,-0.110245
-2.114822,8.270371,0.29007
-1.344498,6.324295,-0.909515
-0.162704,4.916122,-2.254395
1.448669,4.194046,-2.842941
2.867935,4.242233,-3.30336
2.764816,5.32782,-2.579208
2.385895,6.974182,-1.267151
1.317276,9.346024,-0.156647
0.114838,11.337326,0.299179
-1.079132,12.873886,-0.028519
-2.169067,13.253784,-0.695038
-2.649124,12.372101,-0.652588
-2.425018,10.522278,0.05864
-1.711243,8.702469,1.075485
-0.873459,7.393234,1.688416
-0.300766,6.54892,1.217087
0.371811,6.526566,0.382645
1.04216,7.081726,-0.665497
1.73848,7.930206,-1.551071
2.221222,8.840317,-2.09967
2.376495,9.449341,-2.203796
1.938293,9.733932,-1.585114
1.65686,9.523575,-0.677185
1.300598,9.112946,0.066757
0.478409,8.73497,0.691071
-0.084503,8.477234,0.901611
-0.539337,8.443665,0.645325
-0.595276,8.385422,0.266266
-0.373505,8.321182,-0.068771
0.167755,8.308517,-0.35083
0.750961,8.322922,-0.572159
1.052109,8.42453,-0.818848
1.350754,8.621597,-0.949707
1.120407,9.013733,-0.645126
0.83316,9.212799,-0.461655
0.381378,9.096634,-0.282944
0.046677,8.80571,0.097778
-0.09935,8.744965,0.518066
-0.086502,8.994568,0.725342
-0.020355,9.532776,0.521271
0.047028,10.178009,-0.065521
0.11145,10.667129,-0.54155
0.642441,11.060806,-0.90451
1.556458,11.749985,-1.066559
2.521286,12.627014,-1.351379
3.003677,13.313965,-1.437164
2.28064,13.53038,-0.619568
0.802536,13.701279,0.452393
0.524582,14.591034,0.380127
0.671402,16.29602,0.094696
-0.034103,17.020996,-0.521286
-0.97374,15.662323,-1.437271
-1.185516,13.458466,-1.856354
-1.16069,11.393662,-1.559509
-1.27713,9.132629,-1.498474
-1.416916,7.840973,-1.829468
-1.379486,7.842972,-2.110153
-0.99678,8.840271,-1.776917
-0.17598,10.193283,-1.286209
0.357056,12.05481,-0.907104
-0.294205,13.216949,-0.784439
-1.413635,13.572418,-0.635803
-1.991287,13.188934,-0.162033
-1.49089,12.324097,0.572006
-0.365021,11.508804,1.025314
0.236511,10.86351,1.334412
0.383926,10.354767,1.336609
0.333176,9.920105,0.977402
0.453445,9.513275,0.386307
0.707626,9.160202,-0.025787
1.019897,8.811478,-0.262894
1.114365,8.521347,-0.21228
1.144043,8.124756,-0.136078
1.039337,7.467377,0.392563
0.928375,6.659897,1.166809
0.704422,5.699081,2.151657
0.231705,4.797318,3.026032
-0.420731,3.994019,3.506714
-1.042908,3.390121,3.539551
-1.462158,2.950211,3.301453
-1.737976,2.816193,2.774338
-1.844101,2.924652,2.274094
-1.750412,3.141007,1.866379
-1.57785,3.27919,1.443634
-1.396912,3.25824,1.043518
-1.27214,3.177948,0.964798
-1.308624,3.205643,1.50264
-1.421082,3.291199,2.426025
-1.335922,3.485107,3.239639
-0.715622,4.089645,4.020721
0.41539,5.462936,5.179916
1.35582,7.904694,6.735031
1.886643,11.724014,8.390518
2.532867,16.132706,9.064377
3.445404,18.899017,7.566025
3.249786,19.214584,3.810181
1.112076,16.864868,1.396759
-1.285187,13.168579,1.46904
-4.292969,9.87619,1.618622
-3.977753,10.7827,4.91304
-2.071304,14.1828,7.255661
-2.669876,16.490982,5.667664
-3.451172,16.492523,1.162521
-2.882431,14.657913,-3.333557
-1.433212,13.428909,-3.77652
-0.454544,11.903152,-2.449387
-0.534134,8.98381,-2.095306
-0.244583,5.646973,-2.266754
0.815277,3.387024,-2.160721
2.368805,2.133057,-1.492828
2.580078,1.903458,-0.09433
1.595856,2.677475,0.521088
-0.167831,4.256348,-0.066116
-1.9151,7.050903,-1.487763
-2.934097,10.931824,-2.803711
-2.900894,14.285706,-3.63591
-2.982727,15.433685,-4.007889
-2.818527,13.732391,-2.80632
-1.995804,10.987137,-0.250351
-0.468384,8.425034,1.578537
1.375885,6.650406,1.51091
2.854096,5.876511,0.306931
3.654068,5.938232,-0.96907
3.006729,6.728043,-1.643387
1.744507,7.879654,-1.840378
0.2686,9.126999,-1.395386
-0.805923,9.981644,-0.64743
-1.125046,10.052093,-0.092529
-0.340958,9.499222,0.628922
0.987015,8.712402,1.29982
1.626846,7.907455,1.186035
1.364532,7.312531,0.354752
0.554962,7.470978,-0.407135
-0.088135,8.156372,-0.879333
-0.240814,8.896271,-1.166489
0.126801,9.32457,-1.084793
0.853973,9.245758,-0.685654
1.457413,8.727112,3.1e-05
1.398025,8.066116,0.856964
0.673523,7.964447,1.269943
-0.400162,8.553345,1.036331
-0.847626,9.576324,0.064468
-0.691315,10.860153,-1.274292
-0.508072,12.070099,-1.854355
-0.198303,12.652985,-1.407959
0.466934,12.677948,-0.601273
1.984421,12.845032,0.280106
3.233337,13.132919,0.670746
3.325577,13.522202,1.202972
2.420059,13.595596,1.785202
1.231216,13.290085,2.080673
1.072235,13.573654,1.416138
1.78537,14.536881,-0.507156
2.01152,15.50264,-0.987015
1.195023,14.754257,-1.760712
-0.086624,12.049164,-2.308731
-0.682129,9.457764,-2.006882
-1.077194,7.828949,-1.618729
-1.666016,7.228409,-1.501404
-1.627792,7.958679,-1.396667
-0.918747,9.742905,-1.510208
-0.256012,11.753509,-1.978317
-0.645386,13.310455,-2.359116
-1.537674,14.141754,-1.931641
-2.599701,13.52243,-1.011398
-1.987137,12.085724,-0.182144
-1.015778,11.122192,1.382034
0.069138,10.03569,2.636932
0.563721,9.169464,3.128906
0.697174,8.781906,3.485443
0.435715,8.795715,3.800446
0.441879,8.934601,3.277832
0.482986,9.096725,2.378372
0.612869,9.050858,1.022278
1.040604,8.804001,-0.244369
1.509598,8.329788,-1.410324
1.998062,7.630829,-2.022842
2.079285,6.847656,-1.505386
1.809128,6.01915,-0.367935
1.42691,5.054764,0.985764
0.700607,4.092682,2.298645
-0.184113,3.296509,3.262436
-1.362472,2.738403,3.806015
-2.397308,2.447372,3.797043
-3.060867,2.478165,3.425873
-3.548721,2.580673,2.944412
-3.774139,2.808548,2.406647
-3.758057,3.119629,1.918808
-3.498993,3.729217,2.029663
-3.010819,4.476639,2.450439
-2.099396,5.35202,2.793442
-0.546219,6.602402,2.759033
1.153351,8.638626,2.927567
2.519104,11.868866,3.900421
2.969666,16.04567,4.925568
2.519852,19.020172,4.926086
1.704987,19.128952,4.019836
0.186523,17.469604,3.002747
-1.835465,13.632065,3.103485
-3.667831,10.134033,3.930099
-5.366486,7.280762,3.817459
-6.224197,6.879791,3.779877
-3.323898,10.812973,5.71695
-1.609497,15.411118,4.934311
-1.112472,17.182999,1.84581
-1.343079,15.58255,-2.507309
-1.088699,13.188828,-4.830154
0.262955,11.833435,-3.476135
1.123566,9.767517,-1.39502
1.908264,6.507935,0.92244
2.856522,3.27327,1.266632
2.907608,1.011398,0.39975
2.420181,0.24408,0.347229
2.121033,1.380356,0.958771
1.893662,4.324051,0.634384
1.041153,8.827316,-0.588791
-0.044708,13.672974,-1.840057
-1.252396,16.869904,-2.731522
-3.121841,16.227875,-2.919846
-4.407944,12.651337,-1.558929
-3.742981,9.03859,1.461883
-1.974976,6.730759,3.728394
-0.550995,5.860672,3.556503
0.449722,6.233887,1.497665
1.028412,7.445282,-1.027527
1.229629,8.537582,-2.591797
1.007294,8.985123,-3.114563
0.685059,8.738602,-2.93486
0.759521,8.267303,-2.147553
1.063583,7.903442,-0.932724
1.404098,7.640305,-0.001526
1.637924,7.553238,0.311111
1.835861,7.821838,0.073273
2.093124,8.372162,-0.650833
2.128525,8.91124,-1.492004
1.950867,9.387161,-2.074234
1.678146,9.758362,-1.964417
1.410858,9.965759,-1.116577
1.108902,10.040802,0.254974
0.591721,9.969833,1.725082
-0.241547,9.668976,2.562241
-1.259354,9.294022,2.604691
-2.192001,9.139297,2.079636
-2.752899,9.167465,1.121094
-2.585617,9.24736,0.002487
-1.763901,9.583954,-0.719498
-0.892487,10.386795,-0.921799
0.04776,11.31105,-1.227402
1.504852,12.027542,-1.274307
2.942139,12.737854,-1.167984
3.387894,13.350845,-0.940704
2.675461,13.84729,-0.521973
2.127182,14.723801,-0.590271
1.962494,16.038116,-0.143646
1.29277,16.234955,-0.15036
0.430435,14.741806,-1.114975
0.194061,12.531723,-2.205917
-0.100876,10.616791,-2.153305
-0.734955,9.174408,-1.395569
-1.672165,8.287476,-1.247147
-2.129272,8.166321,-1.851105
-2.122452,9.099152,-1.896011
-1.615601,10.661942,-1.497742
-1.197769,12.08432,-1.378097
-1.734039,12.896927,-1.331757
-2.488083,12.750549,-1.275986
-2.675079,12.043015,-0.353592
-1.717041,11.443695,1.121307
-0.417725,10.762939,2.347778
0.581848,10.110794,2.538834
0.852737,9.72937,2.713654
0.774292,9.505127,2.601303
0.741165,9.309158,2.111725
0.640335,9.280197,1.281906
0.77002,9.216843,0.306747
0.842728,9.163925,-0.545731
1.147858,8.95433,-1.293915
1.661911,8.587082,-1.531692
1.920639,8.059021,-1.058929
1.858582,7.387756,-0.05571
1.381439,6.511566,1.375702
0.729462,5.603256,2.581451
-0.257126,4.850357,3.695206
-1.381027,4.175522,4.467163
-2.27002,3.698517,4.539352
-2.864807,3.492981,4.049469
-3.160645,3.470413,2.916855
-3.195679,3.797775,1.626541
-3.157989,4.229858,0.564865
-2.627335,4.708221,0.097778
-1.857056,5.164062,0.103607
-1.113052,5.469559,0.304291
-0.577148,5.661026,0.860703
-0.199295,5.9086,1.761261
0.197876,6.4702,2.766754
0.598038,7.581299,3.6474
1.19484,9.507172,4.786636
1.724686,11.914902,5.664337
1.739014,14.542023,6.129013
0.874924,16.229965,5.645645
-0.664856,16.336044,4.517029
-2.39357,14.614929,3.504745
-3.382187,12.280899,2.892761
-4.125046,10.352264,2.93367
-4.510941,8.793808,3.045471
-4.018875,7.77446,3.031647
-3.734695,6.898849,2.320068
-3.627533,7.924286,3.362
0.217285,13.330032,6.917114
-0.043793,16.342712,6.080765
-1.118896,15.786407,2.296188
-0.926041,13.459366,-1.115509
-0.477539,12.301605,-2.803726
1.711578,14.003448,-1.849274
2.502243,13.434921,-2.658737
2.744827,10.346069,-4.105942
3.626053,7.01976,-2.528153
5.285416,3.999115,0.089386
4.794998,1.458282,1.124161
2.30397,0.347839,1.239426
1.226379,1.911743,1.297485
0.069015,4.774872,1.480667
-2.407349,8.766846,0.567505
-4.628738,13.389389,0.778717
-5.22908,16.622925,1.712601
-5.209717,17.176682,1.853348
-4.66922,14.581848,0.549057
-2.321365,11.200455,-0.343002
0.535873,8.626282,0.012543
2.463013,7.222824,-0.204224
3.226669,6.724777,-1.105881
3.08641,6.911285,-1.74617
2.696258,7.318695,-1.593231
1.705261,7.733658,-0.953705
0.53685,8.237366,-0.410858
-0.378067,8.804962,-0.175064
-0.474335,9.251785,-0.284668
-0.066132,9.630783,-0.242279
0.522095,9.872009,-0.078308
1.012009,9.947632,0.001907
1.170395,9.902741,0.166214
1.09407,9.734894,0.172806
0.92363,9.420227,0.541061
0.589142,9.170319,1.089325
0.324036,8.853027,1.400482
0.271103,8.517136,1.409317
0.302689,8.355331,1.41539
0.542542,8.561111,1.421127
0.669159,9.080917,1.410538
0.580811,9.547714,1.070297
0.490173,9.509903,0.368805
0.523178,9.24173,-0.086548
0.788269,9.108154,-0.11937
1.119309,8.969315,-0.050888
1.558502,8.895126,-0.021835
1.858749,9.008514,0.085175
2.018143,9.294083,0.173004
2.1129,9.589096,0.15239
2.090744,9.859604,0.113434
1.870728,10.037125,0.15773
1.550888,10.095902,0.147369
1.016235,10.090561,0.113312
0.420731,10.131851,0.220612
-0.048569,10.252808,0.335327
-0.050201,10.55304,0.044083
0.452591,11.123123,-0.357101
1.000488,12.002487,-0.122894
1.319458,12.440262,-0.186554
1.133652,11.74913,-0.932449
0.935715,10.974152,-1.304489
0.856262,10.659363,-1.317673
0.67981,10.832932,-1.41214
0.342316,11.127136,-1.628891
-0.084885,10.976303,-2.276489
-0.470673,10.367004,-2.702621
-0.917801,9.592575,-2.301346
-1.407806,8.944702,-1.481064
-1.6595,8.563782,-0.939224
-1.664978,8.46756,-0.675583
-1.345688,8.686508,-0.718002
-0.904526,9.142136,-0.72438
-0.601593,9.766571,-0.533234
-0.321686,10.413162,-0.403351
-0.06723,10.990845,-0.357117
0.003494,11.42717,-0.388138
-0.014191,11.557144,-0.526901
-0.096161,11.397278,-0.695541
-0.224381,11.11734,-0.82515
-0.270828,10.847519,-0.823883
-0.348679,10.752853,-0.636124
-0.48056,10.725616,-0.431854
-0.626114,10.684982,-0.158112
-0.842316,10.657043,0.212006
-0.939819,10.515244,0.449463
-0.974701,10.201248,0.658722
-0.981781,9.763351,0.820831
-0.928085,9.238327,0.906204
-0.865265,8.705292,0.892227
-0.708572,8.248688,0.909546
-0.607498,7.900787,1.066299
-0.643219,7.64769,1.220459
-0.702408,7.4897,1.267639
-0.883743,7.411255,1.308868
-1.209992,7.389771,1.252716
-1.513382,7.335648,1.1371
-1.769028,7.315887,0.938019
-1.952194,7.201141,0.785614
-1.907654,7.041962,0.924927
-1.78418,6.946838,1.293793
-1.708145,6.964401,1.693665
-1.5979,7.152634,1.877701
-1.274017,7.448471,1.81781
-0.745239,7.899292,1.514877
-0.190369,8.498291,1.042267
0.175247,9.121521,0.367477
0.253937,9.455826,-0.266205
0.083817,9.474487,-0.646164
-0.196838,9.335876,-0.641678
-0.392776,9.168854,-0.247574
-0.545975,9.163437,0.346039
-0.606018,9.492569,0.875473
-0.650421,10.353592,1.07193
-0.594833,11.574265,0.963623
-0.473984,13.048706,0.569916
-0.400711,14.067841,-0.031982
-0.610275,13.742615,-0.871933
-0.790451,11.984177,-1.15892
-0.57576,10.188477,-0.642578
-0.096512,9.103714,-0.074005
0.449738,8.24231,0.117249
0.719803,7.791138,-0.305161
0.716583,7.784393,-0.846237
0.706833,8.22374,-1.079605
0.584961,8.777008,-1.024307
0.129898,9.069824,-0.887863
-0.501892,9.077469,-0.64061
-1.121063,9.120483,-0.229187
-1.415344,9.18959,0.177872
-1.313797,9.339493,0.348541
-0.887695,9.460327,0.322281
-0.400314,9.54866,0.224594
0.185638,9.450439,0.005859
0.6651,9.301315,0.008591
1.148331,9.124207,-0.206894
