acc x,acc y,acc z
-0.65387,9.359345,-1.259766
-0.667389,9.45488,-1.308624
-0.682312,9.480392,-1.383804
-0.779404,9.499603,-1.31987
-0.870895,9.516464,-1.375916
-0.887054,9.476074,-1.32901
-0.952515,9.433319,-1.290924
-1.000122,9.374893,-1.104828
-1.043808,9.323776,-1.087143
-0.996506,9.350021,-0.98497
-0.854279,9.363693,-0.839127
-0.817169,9.404938,-0.991699
-0.600967,9.460724,-1.216995
-0.480972,9.51506,-1.38678
-0.162354,9.466766,-1.332993
0.076324,9.49498,-1.303513
0.186462,9.452179,-1.208832
0.290024,9.347259,-1.269791
0.379013,9.398575,-1.160049
0.478851,9.48584,-1.148651
0.553253,9.651169,-1.330124
0.625031,9.82048,-1.563461
0.434677,9.784866,-1.733063
0.203842,9.796188,-1.701004
-0.1754,9.760147,-1.52121
-0.464417,9.682617,-1.424759
-0.677444,9.50975,-1.215027
-0.776138,9.374359,-1.148071
-0.741287,9.2276,-1.107971
-0.628555,9.219986,-1.254654
-0.555801,9.297241,-1.390503
-0.454132,9.250504,-1.600265
-0.345413,9.27359,-1.797821
-0.279465,9.330673,-1.862198
-0.057663,9.427444,-1.988617
-0.042343,9.458756,-1.992157
-0.060242,9.335495,-1.91568
-0.218948,9.188492,-1.803055
-0.194061,9.102905,-1.779678
-0.178864,9.156982,-1.79866
-0.246994,9.258957,-1.800034
-0.149338,9.323013,-2.025208
-0.093903,9.396362,-2.225449
-0.086899,9.431244,-2.181122
0.029205,9.336502,-2.119034
-0.073227,9.267685,-1.950851
-0.1651,9.211166,-1.894897
-0.278824,9.291351,-1.815872
-0.340591,9.377487,-2.022415
-0.445404,9.477936,-2.039993
-0.385315,9.511292,-1.996216
-0.392776,9.542419,-2.028748
-0.248672,9.689316,-1.954208
-0.166046,9.866241,-1.904541
-0.235962,10.018219,-1.853333
-0.433273,10.107986,-1.802429
-0.529572,9.938355,-1.606949
-0.5672,9.736771,-1.414886
-0.382523,9.572006,-1.310318
-0.063858,9.516739,-1.337341
0.05397,9.525894,-1.502152
0.071869,9.58876,-1.660583
0.045197,9.696304,-1.762466
-0.072479,9.738327,-1.803635
-0.192657,9.700928,-1.707489
-0.247665,9.634277,-1.473724
-0.247559,9.507187,-1.253265
-0.211472,9.393387,-1.078583
-0.141068,9.465195,-1.079544
-0.08931,9.60318,-1.255173
-0.116547,9.73558,-1.424713
-0.094131,9.908447,-1.608246
-0.159286,10.065033,-1.626846
-0.371948,10.092499,-1.342819
-0.503967,9.96344,-0.953308
-0.515701,9.84523,-0.643189
-0.536331,9.864609,-0.506439
-0.309174,10.320847,-0.722122
0.383102,11.293198,-1.467712
0.936813,12.310089,-2.290375
0.511749,12.628403,-2.387405
-0.284866,11.989563,-1.975708
-0.485458,11.158737,-1.834335
-0.486404,10.842422,-2.054886
-0.639359,10.895432,-2.50177
-0.916931,10.843002,-3.228271
-1.133423,10.446655,-3.905853
-1.281769,9.690079,-4.091171
-1.321655,8.863815,-3.637497
-1.32135,8.373398,-2.752319
-1.394165,8.420609,-1.90715
-1.463837,9.038116,-1.492828
-1.557541,10.034607,-1.366165
-1.926483,10.950409,-1.359207
-2.376251,11.431534,-1.410919
-2.537659,11.522064,-1.328537
-2.420456,11.32402,-1.061768
-2.116669,10.957367,-0.840683
-1.712326,10.524506,-0.816208
-1.306976,10.11763,-0.678436
-0.800995,9.84552,-0.557419
-0.349792,9.765167,-0.789383
0.014389,9.928009,-0.904175
0.268585,10.172867,-0.882324
0.361374,10.503021,-0.577972
0.403626,10.655182,-0.250275
0.284683,10.553787,0.229492
-0.232254,10.253265,0.844406
-0.603714,9.707169,1.228043
-0.874619,8.984726,1.447052
-1.088287,8.260452,1.55574
-1.199478,7.685822,1.600159
-1.179886,7.235886,1.712814
-1.224594,6.938339,1.901367
-1.176193,6.76532,2.067932
-1.092209,6.682083,2.161804
-1.14621,6.674454,2.26152
-1.356873,6.665314,2.474106
-1.616806,6.680542,2.469116
-1.88562,6.663864,2.339874
-2.201416,6.574905,2.265427
-2.358871,6.554581,2.312927
-2.278244,6.475464,2.419495
-2.064011,6.399704,2.610321
-1.70195,6.340103,2.843979
-1.341995,6.322098,3.218811
-0.979965,6.36969,3.459778
-0.818863,6.514084,3.429565
-0.761139,6.736542,3.463821
-0.638443,6.965775,3.640411
-0.479645,7.306091,4.001511
-0.271729,7.688187,4.222717
0.007401,8.1922,4.458023
0.498428,8.717499,4.517777
1.076157,9.159851,4.61145
1.265457,9.567978,4.596146
1.02887,9.783737,4.570023
0.260864,9.867523,4.013977
-0.692047,9.887177,3.488953
-1.510452,9.909531,3.643661
-2.056839,10.010803,3.983521
-2.432251,10.08548,4.125107
-2.642883,10.040512,3.890137
-2.702179,9.801407,3.552322
-2.859146,9.392151,3.26976
-3.52858,9.895279,2.948029
-1.36644,13.293335,4.402374
-0.858765,15.82431,3.438095
-2.262024,15.761108,1.593842
-3.433807,13.788437,-0.293198
-3.605103,10.968048,-1.355026
-3.00589,8.892487,-0.897675
-2.198746,8.344894,0.010681
-2.332855,7.892777,0.245453
-2.894486,7.083588,-0.567993
-2.709992,6.486633,-1.374344
-1.884247,6.370392,-1.645554
-0.978317,6.615921,-1.501434
0.016327,7.191895,-1.268219
0.901413,8.154755,-1.069015
1.449509,9.153244,-0.953552
1.616806,9.95166,-1.053375
1.726059,10.505692,-1.422073
1.560303,10.728683,-1.779388
1.105682,10.571365,-2.022568
0.567276,10.152832,-1.820953
-0.109695,9.678436,-1.145172
-0.766098,9.261917,-0.465561
-1.418838,8.856964,0.026184
-1.907959,8.591873,0.247116
-2.347687,8.393753,0.378189
-2.4711,8.397751,0.212784
-2.000183,8.493057,-0.297379
-1.382202,8.619034,-0.487106
-0.369217,8.80806,-0.836899
0.362534,8.885773,-1.038071
1.089706,8.898361,-1.279709
1.387848,8.866837,-1.434128
1.294296,8.791489,-1.424408
0.960281,8.735138,-1.347076
0.451126,8.725647,-1.222656
0.004211,8.619217,-1.154007
-0.094635,8.686249,-0.956909
0.227997,8.732208,-0.833344
0.631988,8.747879,-0.898788
1.005951,8.742004,-1.032913
1.252258,8.739456,-1.310837
1.130325,8.777954,-1.217819
0.810104,8.77446,-0.815826
0.276093,8.818481,-0.473511
-0.613297,8.918427,-0.055267
-1.453979,8.900925,-0.131012
-2.052719,8.94133,-0.544693
-2.12648,9.1698,-0.975784
-1.803955,9.425934,-1.576767
-1.16954,9.449616,-1.812546
-0.675232,9.335541,-1.680939
-0.301697,9.152252,-1.518112
0.26181,9.163162,-1.369736
1.184875,9.456421,-1.388321
2.050171,9.9095,-1.584625
2.369522,10.288086,-2.058044
1.774902,10.567581,-2.51593
0.615616,10.857239,-2.466782
-0.268616,11.220276,-1.966049
-0.762177,11.546616,-1.642578
-1.271469,11.735794,-1.017899
-1.446136,11.783554,-0.265884
-1.453079,11.857208,0.208405
-1.150421,12.307556,0.264969
-0.238037,13.34964,-0.192505
0.942963,14.569153,-0.945541
1.199677,15.019852,-1.315018
0.278915,14.183991,-1.566162
-0.701248,12.630844,-1.783279
-0.81366,11.575043,-2.16713
-0.710327,11.514603,-2.993347
-1.272095,11.505692,-3.839188
-2.45163,10.528992,-4.184998
-3.148865,9.227676,-4.033005
-2.916275,8.635605,-3.211197
-2.328705,9.140427,-2.096664
-1.955093,10.190964,-1.49292
-2.168152,10.899475,-1.899216
-2.610184,11.256638,-2.213806
-3.085098,11.334991,-1.918411
-3.045181,11.207214,-0.956787
-2.541168,10.855789,-0.087097
-1.935303,10.409073,0.208572
-1.424835,10.094177,0.105515
-0.953186,9.930466,-0.205963
-0.304611,9.845688,-0.93721
0.584396,9.937881,-1.681778
1.490112,10.085739,-1.969559
2.357483,9.980148,-2.300049
2.68544,9.690506,-2.102982
2.515884,9.246506,-1.438477
2.093246,8.724274,-0.678818
1.336014,8.25618,0.035767
0.461304,7.865173,0.580337
-0.332535,7.538681,1.098724
-0.913666,7.207901,1.467606
-1.254532,6.896805,1.693222
-1.447067,6.71875,1.839508
-1.428543,6.602554,1.724487
-1.219116,6.483963,1.49176
-1.045273,6.360397,1.323166
-1.127258,6.170532,1.237457
-1.566589,5.928848,1.296158
-2.234238,5.582962,1.217255
-2.955261,5.176727,1.072464
-3.543442,4.764694,1.065903
-3.838928,4.410355,1.146149
-3.789505,4.126816,1.34346
-3.459763,3.948929,1.638733
-2.986588,3.988998,2.015549
-2.396378,4.259277,2.702957
-1.578751,4.871887,3.667618
-0.544098,6.041077,4.772446
0.506241,7.833603,5.874954
1.188003,10.338791,6.149536
1.532135,13.494186,5.775543
1.769287,16.404938,4.731018
1.471451,17.927872,3.082458
0.377502,17.574615,1.490768
-0.738525,15.701965,0.683304
-1.478928,13.109329,0.888397
-1.891907,10.219315,1.863983
-3.02002,7.385437,2.952637
-4.729355,6.424866,4.570038
-3.148804,9.252731,7.953094
-3.187057,11.907715,8.260071
-3.742691,13.593323,5.13443
-2.620285,13.980377,0.24707
-1.197144,13.742889,-3.029144
0.626511,14.185715,-3.215195
1.090942,13.496994,-3.174438
-0.064575,11.009552,-3.845764
-0.104324,8.05603,-4.014114
0.704453,5.47522,-2.839966
0.440475,3.393906,-0.718948
-0.608902,2.111893,1.200134
-1.902252,1.841797,1.667587
-2.973343,2.623444,0.567429
-3.248321,4.615738,-0.909195
-2.913834,7.860931,-2.333984
-2.282272,11.843903,-3.895615
-1.466858,15.044052,-5.357361
-0.901306,16.177444,-6.409302
-0.780319,14.581055,-5.60846
-0.40094,11.321533,-2.620239
0.211853,8.808289,0.508026
0.887726,6.471374,3.316025
0.915421,5.56424,3.646256
0.570877,6.007431,2.291931
0.238129,7.396729,0.341888
-0.007416,9.021637,-1.864685
0.041031,10.338974,-3.774429
0.512711,10.793304,-4.82814
0.855209,10.434479,-4.447464
1.088501,9.708649,-2.930313
1.131546,9.000473,-1.035889
0.638061,8.546249,0.263168
0.097275,8.247971,0.635956
-0.803238,8.191574,0.61441
-1.235413,8.256256,0.206009
-1.085251,8.367294,-0.251358
-0.454346,8.514389,-0.726532
0.283005,8.678604,-1.118149
0.672806,8.821518,-1.426178
0.878906,8.964111,-1.536606
0.6987,9.164688,-1.749329
0.161972,9.171616,-1.776138
-0.556564,9.035233,-1.721863
-1.138443,8.932785,-1.307007
-1.498703,8.809906,-0.722275
-1.489624,8.644897,-0.378021
-0.999496,8.622681,-0.552979
-0.525024,8.915298,-1.161377
-0.08255,9.489059,-1.768448
0.43779,10.304275,-2.230835
0.921814,11.010986,-2.428497
1.54454,11.323792,-2.193878
1.750244,11.501099,-1.768768
1.442734,11.57695,-1.274048
0.715302,11.748703,-0.667282
0.077057,11.921722,-0.233856
-0.862991,11.673004,0.160461
-1.24321,11.271957,0.77652
-1.170319,11.593735,0.557236
0.02153,13.046967,-1.883072
1.866989,14.965591,-3.220657
1.355682,15.590241,-3.255249
-0.63829,13.793304,-2.949722
-0.693893,11.683197,-2.637772
-0.298065,10.098846,-2.423355
-0.426651,8.721329,-2.011688
-1.26033,7.562622,-2.151199
-2.140884,7.266312,-2.446533
-2.501617,8.110657,-2.573608
-2.259888,10.142166,-2.320343
-1.966156,12.41745,-2.580124
-2.598328,13.663971,-3.530914
-3.568634,13.666153,-3.965012
-3.732986,12.750214,-2.477112
-2.924698,11.56543,-0.303192
-1.864792,10.571716,1.15332
-0.825897,9.883285,1.346695
-0.525116,9.62088,1.068863
-0.277222,9.573074,0.607559
-0.105179,9.768051,-0.034103
0.226776,10.082733,-0.619629
0.72467,10.174484,-1.33464
0.824005,10.169189,-1.673798
0.821655,9.96109,-1.647308
0.902451,9.492645,-0.991226
0.781387,8.861725,-0.430878
0.200394,8.230362,0.472809
-0.515045,7.55127,1.247665
-1.204559,6.894379,1.645905
-1.721359,6.26738,1.881393
-1.985153,5.748215,1.891907
-2.082047,5.459137,1.765656
-2.059158,5.407303,1.714569
-2.035049,5.568298,1.551758
-1.871155,5.787765,1.414047
-1.905075,6.09465,1.429245
-2.207458,6.323761,1.678162
-2.638672,6.313828,1.825226
-2.9608,5.998459,1.533676
-3.184189,5.641495,1.680939
-3.13736,5.310074,1.877976
-2.827209,5.088242,2.20076
-2.313858,5.05603,2.654495
-1.674027,5.292954,3.329819
-0.873306,5.74202,3.92041
-0.174454,6.482635,4.373566
0.520401,7.523315,4.560074
1.148895,8.797272,4.46701
1.520096,10.163559,4.119263
1.415008,11.52507,3.390503
1.067551,12.573654,2.565277
0.674484,12.991257,2.073456
0.441422,12.696716,2.273895
0.062637,11.859512,2.765762
-0.493668,10.676575,3.286133
-1.065353,9.532837,3.824799
-1.583008,8.476898,4.305786
-2.473434,8.385269,4.442123
-1.607193,11.736237,5.698059
0.525742,16.63472,6.247284
-2.442368,16.98764,1.468079
-5.434586,14.724777,-2.849609
-5.332886,12.038361,-4.395721
-3.003891,10.613846,-2.98349
-0.839294,10.793518,-0.684509
-1.196991,10.549698,-0.141556
-3.374237,8.829147,-1.363708
-4.26889,6.842529,-2.070557
-3.556824,5.383179,-1.50769
-2.733704,4.449204,-0.512878
-2.303528,4.198608,-0.046509
-2.034332,4.682236,-0.475479
-1.444626,5.94046,-1.153625
-0.138931,8.062164,-1.592926
1.256958,10.712784,-2.29808
1.763458,12.75386,-3.67421
1.404388,13.370346,-5.129562
0.843704,12.522659,-5.244171
0.913528,10.90657,-3.313812
1.288055,9.271881,-0.56105
1.043442,8.040848,1.676407
0.277039,7.475342,2.37529
-0.721329,7.593338,1.679031
-1.645615,8.149094,0.301926
-1.998322,8.788254,-1.168518
-1.604523,9.26738,-2.100738
-0.525406,9.4832,-2.339661
0.592331,9.380798,-2.087158
1.026474,9.039795,-1.719269
0.857635,8.697647,-1.366089
0.393829,8.538864,-1.037735
-0.248322,8.557556,-0.590698
-0.786545,8.640564,-0.18718
-0.921036,8.615921,-0.01535
-0.654877,8.576202,-0.022629
0.030334,8.555954,-0.158035
0.783676,8.598846,-0.389572
1.282623,8.758209,-0.73526
1.404312,9.072037,-1.024292
1.125046,9.416733,-1.223175
0.326096,9.557373,-1.370041
-0.751724,9.327179,-1.388535
-1.831787,8.840591,-0.825363
-2.347839,8.582809,0.034088
-2.291275,8.719269,0.208176
-1.824326,9.085037,-0.448013
-1.130722,9.590912,-1.601654
-0.488922,10.105377,-2.476181
0.435272,10.501221,-2.745285
1.597748,10.938507,-2.554581
2.278259,11.257019,-2.300919
2.262772,11.490326,-1.844101
1.666672,11.771561,-1.08255
0.615051,12.360458,-0.821869
0.397598,13.323334,-2.097794
1.169815,14.805511,-2.947052
0.954147,15.656036,-2.973648
-0.426193,14.948059,-2.346436
-1.141113,13.59639,-1.580414
-1.125854,12.363907,-1.493607
-0.989288,11.405151,-2.120499
-1.058243,10.422272,-2.780106
-1.586365,9.277328,-2.879898
-2.241074,8.271667,-2.706222
-2.523682,7.917999,-2.201782
-2.494019,8.422714,-1.75589
-2.275726,9.539902,-1.726639
-2.386429,10.612457,-1.972702
-2.801453,11.313904,-2.173523
-3.094986,11.524368,-1.955109
-2.968613,11.229462,-1.137283
-2.348968,10.739746,-0.318771
-1.713791,10.250732,0.01564
-1.323883,9.966095,0.336288
-1.196518,9.930878,0.465378
-0.934143,9.931625,0.16156
-0.488663,10.045822,-0.461197
-0.240738,10.07518,-0.98526
-0.03981,9.960648,-1.472595
0.171021,9.843506,-1.511429
0.369934,9.593643,-1.110565
0.547318,9.115524,-0.450104
0.301819,8.569672,0.407913
-0.117371,7.95993,1.09845
-0.514297,7.308517,1.595306
-0.965851,6.628449,2.093704
-1.123367,6.093491,2.250488
-1.185837,5.617508,2.420075
-1.046051,5.302841,2.373795
-0.697052,5.139267,1.927765
-0.466278,5.268082,1.586792
-0.192108,5.490753,1.21637
-0.22554,5.850861,1.057724
-0.529297,6.152557,1.158783
-0.89003,6.337097,1.273712
-1.507935,6.432877,1.656586
-2.111359,6.453659,2.073975
-2.793869,6.395279,2.47525
-3.168732,6.375488,2.943604
-3.26828,6.42688,3.104721
-2.986511,6.599091,3.334778
-2.28952,6.918396,3.42189
-1.475571,7.499542,3.661301
-0.536209,8.322372,3.885071
0.237198,9.509216,4.045227
0.379791,10.567062,3.790085
-0.065735,11.539535,3.173752
-1.018585,12.379608,2.305099
-2.006973,12.922058,1.765274
-2.663513,12.959396,2.151886
-3.017761,12.264221,2.59494
-3.175552,11.305817,2.704758
-3.156601,10.141388,2.811173
-2.953125,9.013367,3.165833
-2.548767,7.824799,3.748657
-2.532776,6.87352,3.965973
-3.141724,7.207077,3.909241
-0.530548,11.614288,7.02449
0.777588,15.036285,5.465347
-0.508179,16.12645,1.899078
-1.963837,14.946884,-2.283295
-2.600159,12.570908,-4.511444
-1.49971,11.788422,-3.231812
0.520523,12.041763,-1.112991
0.113327,10.780365,-1.207703
-0.981766,8.984161,-1.769272
-1.372391,7.194168,-1.386597
-1.312118,5.42395,-0.682938
-1.200653,3.927963,-0.174667
-1.310104,3.51915,-0.257034
-1.720596,4.084595,-1.130066
-1.602539,5.716156,-1.924469
-0.75116,8.322876,-2.332764
0.300095,11.117523,-2.971405
0.608368,13.173553,-4.241867
-0.171951,13.771027,-5.309235
-0.754578,12.813751,-5.036545
-1.233688,10.785919,-2.466263
-0.886978,8.568161,0.266663
-0.511307,7.215439,1.883225
-0.604492,6.812042,1.916824
-1.088135,7.30928,0.926666
-1.851196,8.335541,-0.648895
-2.188644,9.329376,-2.479294
-1.67308,9.990601,-3.695999
-0.618393,10.236603,-4.043304
0.627335,10.043716,-3.406876
1.283981,9.585754,-2.271118
1.138,8.964539,-1.327698
0.382126,8.600662,-0.744049
-0.514297,8.520065,-0.371948
-1.039154,8.554428,-0.237976
-1.007828,8.71991,-0.405594
-0.448944,8.956314,-0.724258
0.485519,9.182938,-1.134338
1.277374,9.332092,-1.519669
1.610031,9.374145,-1.767654
1.413269,9.349945,-1.681946
0.805542,9.288406,-1.359192
0.037766,9.21582,-1.104156
-0.825836,9.058578,-0.875107
-1.455322,8.913025,-0.658035
-1.808838,8.730866,-0.617523
-1.885452,8.58728,-0.778336
-1.856049,8.649414,-0.977554
-1.737213,8.917404,-1.236557
-1.443115,9.117874,-1.334229
-1.026596,9.210037,-1.216629
-0.261887,9.320785,-1.021057
0.495361,9.380631,-0.923477
1.050781,9.234268,-1.133591
1.541031,9.063965,-1.382767
1.70311,9.160172,-1.372375
1.460541,9.50444,-1.597321
1.123535,9.936295,-2.264404
0.816361,10.31839,-2.780319
0.472382,10.600586,-2.539505
-0.121338,10.678909,-1.717361
-0.722031,10.502152,-0.694321
-1.216324,10.442139,-0.141678
-0.995514,11.204941,-1.183167
0.382721,12.479462,-3.30632
1.631165,13.927292,-4.117081
0.831955,14.494278,-3.465912
-0.533859,13.444946,-3.19873
-0.844498,12.357025,-3.292786
-0.459229,12.219162,-3.506729
-0.238068,12.340851,-3.825516
-0.197647,11.899475,-4.336578
-0.289917,10.948242,-4.242767
-0.671036,10.087341,-3.049988
-1.102493,9.587631,-1.496719
-1.321777,9.395569,-0.61615
-1.224762,9.392777,-0.713287
-0.952347,9.632034,-1.192169
-0.769806,9.937164,-1.524033
-0.784866,10.130615,-1.41478
-0.764984,9.99997,-1.623077
-0.614105,9.677963,-1.978607
-0.594147,9.392654,-2.043594
-0.833191,9.27858,-1.857163
-1.274231,9.35379,-1.633743
-1.785599,9.490326,-1.381607
-2.443176,9.667908,-1.018387
-2.755341,9.606552,-0.992645
-2.570892,9.508209,-1.37619
-2.006393,9.429413,-1.699356
-1.431976,9.440781,-1.758621
-0.985794,9.431427,-1.352432
-0.747818,9.373734,-0.6474
-0.720993,9.203232,0.00354
-0.868561,8.912247,0.667206
-1.073456,8.586853,1.077606
-1.270493,8.266586,1.20192
-1.302612,8.062561,0.952438
-1.268402,7.966461,0.506653
-1.297791,7.979569,-0.05928
-1.286438,8.018768,-0.65976
-1.451828,8.104187,-0.995056
-1.599426,8.10141,-1.10849
-1.927948,8.010101,-0.831619
-1.934341,7.849014,-0.425766
-2.118439,7.789749,0.068268
-2.096451,7.742432,0.462051
-2.062561,7.864059,0.658203
-2.093307,8.001358,0.638611
-2.178879,8.243118,0.608383
-2.200684,8.410477,0.400146
-1.96904,8.705688,0.142151
-1.673325,8.981766,-0.210938
-1.455597,9.268021,-0.59462
-1.24263,9.490997,-0.931351
-1.235123,9.588226,-1.346939
-1.199554,9.604858,-1.552475
-1.174835,9.641739,-1.449707
-1.157715,9.625366,-1.327683
-1.278549,9.64061,-0.795044
-1.426239,9.553513,-0.322693
-1.579376,9.47644,0.172256
-1.692917,9.399811,0.553497
-1.812531,9.318466,0.668533
-1.724625,9.31749,0.662811
-1.533096,9.357956,0.641296
-1.282028,9.353226,0.492737
-1.094879,9.360413,0.328339
-0.882126,9.368912,0.039703
-0.820267,9.446259,-0.182358
-0.772003,9.454239,-0.180405
-0.63829,9.41217,-0.039978
-0.582169,9.391708,0.073105
-0.624268,9.234802,0.070251
-0.923325,9.099655,-0.313278
-1.132614,8.95871,-0.623459
-1.321182,9.013794,-0.983643
-1.52388,9.147781,-1.233505
-1.59465,9.437866,-1.186676
-1.668472,9.790558,-1.135178
-1.596832,10.178101,-1.193741
-1.435974,10.578491,-1.181366
-1.519455,10.878677,-1.087341
-1.451798,10.823334,-1.075668
-1.514374,10.494751,-0.899246
-1.417572,9.875122,-0.484497
-1.356354,9.194763,-0.060211
-1.350601,8.696045,0.141281
-1.330399,8.497025,0.079315
-1.257034,8.76207,-0.480255
-1.157166,9.294952,-1.211624
