frame,acc x,acc y,acc z
782,1.271755,10.164463,0.378413
783,1.152004,10.130933,0.452659
784,1.034648,10.176438,0.665815
785,0.950823,10.39678,0.716111
786,0.979563,10.480605,0.716111
787,0.998723,10.523716,0.692161
788,0.900527,10.466235,0.725691
789,0.773591,10.334509,0.718506
790,0.646655,10.114167,0.802332
791,0.428708,9.939331,0.967588
792,0.58678,9.831555,1.163979
793,0.890947,9.877061,1.494492
794,1.271755,9.994417,1.84177
795,1.468147,10.090217,2.210603
796,1.631008,10.324929,2.598596
797,1.623823,10.564431,2.771038
798,1.585503,10.99793,3.11113
799,1.494492,11.294912,3.075205
800,1.544788,11.606265,3.214116
801,1.575923,11.874507,3.350632
802,1.820215,12.164304,3.513494
803,2.035767,12.312795,3.863167
804,2.378254,12.128379,4.011658
805,2.636917,11.879297,4.243975
806,2.806963,11.522439,4.028423
807,2.799778,11.053015,3.901487
808,2.830913,10.617122,3.743416
809,2.548301,10.334509,3.985313
810,1.657354,9.963281,4.598438
811,1.657354,9.963281,4.598438
812,1.22146,9.553733,4.406836
813,0.761616,9.041199,4.140989
814,0.450264,8.392148,4.071533
815,0.445474,7.846084,3.911067
816,0.701741,7.735913,3.829636
817,1.072969,7.819739,3.865562
818,1.472937,7.905959,3.784131
819,1.765129,7.893984,3.800896
820,2.021396,7.762258,3.776946
821,2.258503,7.563472,3.575764
822,2.239343,7.32397,3.642825
823,2.670447,7.132368,3.271597
824,2.783013,6.993457,3.199746
825,2.835703,6.967112,3.372188
826,2.893184,6.981482,3.281177
827,3.05844,6.974297,3.238066
828,3.113525,6.971902,3.417693
829,3.254832,6.971902,3.412903
830,3.432063,6.957532,3.475173
831,3.556604,6.957532,3.606899
832,3.535049,7.036567,3.772156
833,3.439248,7.106023,3.944597
834,3.269202,7.235354,4.112249
835,3.10634,7.288044,4.3278
836,2.977009,7.30002,4.30864
837,2.931504,7.355105,4.227209
838,2.852468,7.273674,4.023633
839,2.747087,7.32876,3.937412
840,2.624941,7.513176,3.887117
841,2.47166,7.630532,3.970942
842,2.375859,7.719148,4.126619
843,2.268083,7.802974,4.282295
844,2.313589,7.812554,4.493057
845,2.335144,8.042476,4.823569
846,2.390229,8.313113,5.125342
847,2.258503,8.638835,5.57321
848,2.107617,9.093889,6.001919
849,2.066902,9.536968,6.171965
850,2.232158,9.714199,6.447393
851,2.648892,9.879456,6.679709
852,3.02012,10.001602,6.715635
853,3.345842,10.023157,6.720425
854,3.604504,9.831555,6.567144
855,3.865562,9.457932,6.274951
856,3.949387,8.957373,5.985154
857,3.908672,8.571775,5.688171
858,3.604504,8.119116,5.5301
859,3.252437,7.695198,5.398374
860,3.089575,7.608977,5.47741
861,4.29906,9.960886,5.642666
862,4.057163,15.845449,3.750601
863,3.142266,18.556611,4.215234
864,2.919529,15.035933,3.73144
865,3.065625,10.648257,3.391348
866,3.558999,8.722661,2.751877
867,4.045188,8.854387,1.444197
868,2.998564,8.966953,1.81303
869,1.111289,8.222102,2.859653
870,0.495769,7.446116,2.878813
871,0.950823,7.589817,1.942361
872,0.689766,8.267607,0.66342
873,0.689766,8.267607,0.66342
874,-0.972378,8.863967,-1.27894
875,-1.350791,8.770562,-1.460962
876,-1.755549,9.050779,-0.924478
877,-0.912502,9.968071,-0.129331
878,0.725691,10.250684,0.735271
879,1.911226,9.939331,0.150886
880,1.911226,9.939331,0.150886
881,1.911226,9.939331,0.150886
882,1.911226,9.939331,0.150886
883,2.644102,9.877061,0.447869
884,3.07281,9.663904,0.802332
885,3.206931,9.616003,1.147214
886,3.05844,9.836345,1.271755
887,2.512375,9.987231,1.166375
888,1.561553,9.747729,0.514929
889,0.723296,9.405242,-0.294587
890,0.395178,9.230405,-0.886157
891,0.282612,9.354946,-0.725691
892,0.488584,9.589658,-0.136516
893,0.711321,9.898616,0.704136
894,0.785566,10.150093,1.444197
895,0.773591,10.145303,1.86093
896,0.483794,10.015972,1.750759
897,0.040715,9.707014,1.444197
898,-0.356858,9.395662,1.185535
899,-0.641865,9.259146,1.020278
900,-0.811912,9.280701,1.142424
901,-0.840652,9.414822,1.434617
902,-0.684976,9.625583,1.547183
903,-0.536484,9.728569,1.84177
904,-0.071851,9.78605,1.901646
905,0.258662,9.575288,1.580713
906,0.613125,9.393267,1.381926
907,0.852627,9.16574,1.161584
908,1.298101,9.029224,1.108894
909,1.456172,9.297466,1.132844
910,1.88967,9.726174,1.482517
911,2.138752,9.941726,1.674119
912,1.82261,10.037527,1.518442
913,1.561553,10.341694,1.087339
914,1.458567,10.533296,0.608335
915,1.401086,10.303374,0.234712
916,0.878972,10.660232,0.366438
917,0.102986,11.08894,0.498164
918,-0.747246,11.70925,0.716111
919,-1.585503,12.308005,1.010698
920,-2.272874,12.487632,1.494492
921,-2.567461,12.051738,1.530417
922,-2.186653,11.888877,1.566343
923,-2.026187,12.779824,1.839375
924,-1.973496,13.979729,2.292034
925,-1.599873,15.395186,2.905159
926,-0.833467,16.207097,3.307522
927,0.371228,16.583115,3.594924
928,0.953218,15.89814,3.228486
929,1.664539,15.076648,2.785408
930,2.184258,13.421689,2.119592
931,2.639312,11.848162,1.504072
932,3.027305,10.358459,1.065784
933,3.056045,9.441167,0.522114
934,3.599714,9.457932,-0.069456
935,4.442761,10.566826,-0.153281
936,4.849915,11.630215,-0.313748
937,4.557722,12.166699,-0.63468
938,3.259622,12.066108,-0.802332
939,1.678909,11.558364,-0.148491
940,0.308958,11.364368,0.514929
941,-0.280217,11.448193,1.017883
942,-0.613125,11.409873,1.456172
943,-0.486189,11.251802,1.975891
944,-0.268242,10.947634,2.189048
945,-0.476609,10.559641,2.332749
946,-0.208367,9.977651,2.078877
947,-0.119751,9.383687,2.074087
948,-0.01437,8.847202,1.7795
949,0.332908,8.349038,1.477727
950,0.445474,7.740703,1.362766
951,0.864602,7.266489,1.312471
952,1.583108,6.73719,1.288521
953,2.224973,6.660549,1.700464
954,2.672842,6.574329,1.913621
955,2.924319,6.586304,1.956731
956,3.127896,6.710845,1.7795
957,3.156636,6.818621,1.523232
958,3.10634,6.74198,1.329236
959,3.084785,6.588699,0.986748
960,2.943479,6.243816,0.771196
961,2.883604,5.903723,0.526904
962,2.742297,5.424719,0.488584
963,2.684817,5.151687,0.589175
964,2.598596,5.132527,0.862207
965,2.548301,5.156477,1.2502
966,2.572251,5.271438,1.664539
967,2.41418,5.51573,2.344724
968,2.196233,5.779182,3.094365
969,1.920806,6.296506,4.105063
970,1.599873,7.249724,5.405559
971,1.190325,8.806487,6.950347
972,0.802332,10.784773,8.054451
973,0.864602,12.806169,8.571775
974,1.118474,13.991704,8.217312
975,1.743574,14.940132,7.544312
976,2.787803,15.629897,7.862849
977,3.604504,15.265854,8.756191
978,3.944597,13.582156,9.168135
979,4.629573,11.227852,8.0305
980,5.731282,8.523875,6.157595
981,6.550378,6.191125,4.517007
982,7.980205,5.561235,3.465593
983,8.56938,9.745334,1.985471
984,6.363567,15.239509,1.118474
985,4.873865,17.397422,1.460962
986,2.284849,15.627502,2.483635
987,0.502954,12.875625,3.197351
988,0.040715,12.118799,2.529141
989,-1.307681,10.557246,1.578318
990,-1.374741,7.254514,0.01916
991,-0.579595,4.069138,-0.560435
992,-0.720901,1.918411,-1.609453
993,0.203577,1.575923,-3.022515
994,1.27894,3.02012,-2.478845
995,1.913621,6.69887,-0.62031
996,2.196233,10.969189,0.749641
997,1.904041,14.09469,1.652563
998,0.874182,15.071858,1.961521
999,-0.148491,14.231206,1.942361
1000,-0.711321,11.582314,1.506467
1001,-1.204695,9.297466,0.989143
1002,-1.391506,7.903564,0.749641
1003,-0.847837,7.877219,1.123264
1004,-0.340093,8.363408,1.745969
1005,-0.083826,9.098679,2.153123
1006,0.301772,9.80042,1.825005
1007,0.761616,10.229128,1.501677
1008,1.209485,10.300979,1.314866
1009,1.374741,10.104587,1.039438
1010,1.163979,9.390872,0.797542
1011,0.833467,9.268726,0.828677
1012,0.833467,9.268726,0.828677
1013,0.711321,9.338181,0.809517
1014,0.752036,9.695039,0.809517
1015,0.792751,9.896221,0.869392
1016,1.099314,9.793235,0.696951
1017,1.384321,9.469907,0.61073
1018,1.633403,9.148975,0.191602
1019,1.623823,9.062754,0.112566
1020,1.774709,9.280701,0.239502
1021,1.676514,9.338181,0.486189
1022,1.343606,9.299861,0.603545
1023,0.960403,9.22322,0.807122
1024,0.423918,9.18011,0.946033
1025,-0.253872,9.271121,1.003513
1026,-0.63468,9.460327,1.120869
1027,-0.66342,9.917776,1.362766
1028,-0.443079,10.298584,1.640588
1029,-0.04311,10.327324,1.674119
1030,0.320933,10.312954,1.470542
1031,0.217947,10.384805,1.015488
1032,-0.349673,10.688972,0.737666
1033,-1.18314,11.476934,0.886157
1034,-2.320774,12.279265,1.631008
1035,-3.367397,12.810959,2.450105
1036,-3.73144,12.832515,2.938689
1037,-2.682422,12.904365,3.544629
1038,-0.967588,12.851675,4.394861
1039,0.026345,13.234878,4.991221
1040,-0.455054,15.057488,4.282295
1041,-1.516047,16.482524,4.428391
1042,-1.24062,16.5903,5.178032
1043,-0.196392,16.010706,5.309758
1044,0.342488,14.15217,4.782854
1045,0.792751,12.679233,3.999683
1046,1.17356,11.567944,2.435735
1047,1.458567,10.724897,1.403481
1048,1.595083,10.576406,1.075364
1049,2.129172,11.424243,0.64426
1050,2.991379,12.842095,0.182021
1051,3.240461,13.819263,-0.495769
1052,2.749482,13.991704,-1.417852
1053,1.973496,13.663586,-2.047742
1054,0.958008,13.095967,-1.128054
1055,0.407153,12.533137,0.392783
1056,0.064666,12.037368,1.544788
1057,-0.086221,11.397898,2.157913
1058,0.136516,10.777588,2.536326
1059,-0.002395,10.300979,3.099155
1060,0.191602,9.79563,3.01054
1061,0.529299,9.417217,2.696792
1062,0.421523,9.055569,2.222578
1063,0.03353,8.847202,1.393901
1064,-0.289797,8.600515,0.560435
1065,-0.411943,8.152646,0.00479
1066,-0.148491,7.513176,0.026345
1067,0.560435,6.928792,0.292192
1068,1.21667,6.576724,0.737666
1069,1.80345,6.289321,1.063389
1070,2.375859,6.021079,1.219065
1071,2.747087,5.920488,1.209485
1072,3.02012,5.908513,1.060994
1073,3.242856,5.963599,0.881367
1074,3.187771,5.944438,0.641865
1075,2.991379,5.846243,0.387993
1076,2.864443,5.582791,0.081431
1077,2.905159,5.388794,-0.03353
1078,3.012935,5.324128,0.241897
1079,2.965034,5.213958,0.58199
1080,2.890789,5.211563,1.094524
1081,2.639312,5.178032,1.825005
1082,2.378254,5.257068,2.703977
1083,2.246528,5.628296,3.975732
1084,2.090852,6.615044,6.066584
1085,1.750759,8.646021,8.274792
1086,1.805845,11.349998,9.225615
1087,2.251318,14.391672,8.799302
1088,3.027305,17.054934,7.812554
1089,2.773433,17.81655,7.93949
1090,2.524351,16.846567,8.672366
1091,3.113525,14.480288,9.220825
1092,4.160149,11.187136,8.322693
1093,4.806804,7.503596,6.353987
1094,4.86189,4.466711,4.26553
1095,4.732559,2.778223,2.565066
1096,6.399492,4.864285,1.355581
1097,4.478687,13.299543,-0.713716
1098,3.863167,19.006875,-2.042952
1099,1.80824,18.132693,0.972378
1100,0.340093,13.986914,3.439248
1101,0.282612,12.995376,3.499124
1102,0.02395,11.809841,2.064507
1103,-1.080154,8.969348,2.280059
1104,-2.5004,5.783972,1.719624
1105,-1.092129,3.223696,-1.987866
1106,0.361648,2.44292,-3.113525
1107,1.223855,4.560117,-2.246528
1108,2.227368,8.54064,-1.504072
1109,2.603386,11.860137,-0.910107
1110,2.205813,13.345049,0.253872
1111,1.403481,13.127102,1.312471
1112,1.128054,11.728411,1.444197
1113,1.396296,10.487791,0.704136
1114,0.902922,9.496252,1.089734
1115,-0.138911,8.710686,1.995051
1116,-0.929268,8.478369,2.095642
1117,-1.398691,8.746611,1.79866
1118,-1.702859,9.405242,1.429827
1119,-1.389111,9.738149,1.092129
1120,-0.778381,9.520203,1.020278
1121,-0.229922,9.249565,0.838257
1122,0.510139,9.029224,0.65863
1123,0.922083,8.959768,0.555645
1124,1.041833,8.988508,0.500559
1125,0.823887,9.089099,0.440684
1126,0.735271,9.383687,0.359253
1127,0.524509,9.503438,0.318538
1128,0.404758,9.383687,0.155676
1129,0.680186,9.290281,0.227527
1130,1.17835,9.354946,0.60115
1131,1.774709,9.572893,0.984353
1132,2.054927,9.599238,1.276545
1133,2.157913,9.759705,1.374741
1134,1.901646,9.920171,1.475332
1135,1.322051,9.879456,1.475332
1136,0.811912,10.037527,1.460962
1137,0.402363,10.676997,1.801055
1138,0.56283,11.206296,2.076482
1139,0.938848,11.369158,1.80824
1140,1.334026,11.304492,1.365161
1141,1.20709,11.189531,0.977168
1142,0.148491,11.218271,0.986748
1143,-1.295706,11.144026,1.21667
1144,-2.828518,11.251802,1.338816
1145,-3.71228,11.476934,1.664539
1146,-3.590134,11.795471,2.725532
1147,-2.653682,11.840977,3.784131
1148,-1.944756,12.664863,4.425996
1149,-2.196233,14.032419,3.530259
1150,-1.662144,14.295872,3.570974
1151,-0.332908,15.050303,4.071533
1152,0.783171,15.404766,4.751719
1153,1.084944,14.14738,4.629573
1154,1.209485,12.439731,3.582949
1155,1.611848,11.081755,2.026187
1156,2.227368,10.892549,1.492097
1157,2.996169,11.555969,1.190325
1158,3.774551,12.753479,0.383203
1159,4.813989,13.903088,-0.208367
1160,4.790039,14.125825,-1.140029
1161,3.906277,13.881533,-1.717229
1162,2.802173,13.45043,-1.389111
1163,1.647773,12.93071,0.088616
1164,0.716111,12.341536,1.762734
1165,0.062271,11.941567,2.876418
1166,-0.399968,11.570339,3.745811
1167,-0.093406,10.990745,3.939807
1168,-0.249082,10.312954,3.745811
1169,-0.225132,9.637559,3.216511
1170,-0.459844,9.280701,2.344724
1171,-0.924478,9.148975,1.465752
1172,-1.302891,9.036409,0.742456
1173,-1.247805,8.830437,0.268242
1174,-0.692161,8.310718,0.423918
1175,0.234712,7.31918,0.759221
1176,1.233435,6.128855,1.271755
1177,2.181863,5.403164,1.628613
1178,2.814148,4.960085,1.791475
1179,2.977009,4.766089,1.911226
1180,2.957849,4.749324,1.956731
1181,2.751877,4.8571,1.88009
1182,2.778223,4.897815,1.614243
1183,2.701582,4.821174,1.163979
1184,2.883604,4.802014,0.775986
1185,3.329077,4.888235,0.6251
1186,3.724255,4.960085,0.670605
1187,3.906277,5.034331,0.977168
1188,3.752996,4.89542,1.326841
1189,3.561394,4.687053,1.642983
1190,3.305127,4.651128,2.083667
1191,3.05365,5.091812,2.771038
1192,2.636917,6.476133,4.088298
1193,2.284849,9.000483,5.783972
1194,2.617756,12.846885,7.678433
1195,3.329077,17.239351,8.842412
1196,3.949387,19.533779,9.568103
1197,4.675078,19.026035,9.520203
1198,4.718188,15.194004,8.672366
1199,4.30385,11.218271,7.36229
1200,3.923042,7.558682,5.872588
1201,5.158872,5.609136,4.531377
1202,6.507268,10.083032,2.521956
1203,4.972061,16.559165,1.343606
1204,3.551814,18.362615,2.042952
1205,1.262175,15.194004,3.192561
1206,-0.069456,11.551179,3.489543
1207,0.728086,11.297307,1.365161
1208,0.517324,9.908196,-1.096919
1209,0.419128,6.492898,-1.597478
1210,0.136516,3.295547,0.438289
1211,0.02874,2.090852,-0.869392
1212,0.011975,2.783013,-2.148333
1213,-0.141306,5.724097,-1.23104
1214,0.071851,9.745334,-0.143701
1215,0.550854,12.803774,0.646655
1216,0.512534,13.958174,1.863325
1217,0.016765,13.412109,2.260898
1218,-0.304167,11.773916,1.631008
1219,-0.756826,9.86269,0.835862
1220,-1.072969,8.629255,0.613125
1221,-1.113684,8.272397,0.941243
1222,-0.752036,8.677156,1.820215
1223,-0.105381,9.381292,2.304009
1224,0.495769,9.912986,2.292034
1225,0.902922,9.989626,2.299219
1226,1.314866,9.675879,1.961521
1227,1.314866,9.259146,1.585503
1228,1.17835,9.031619,0.969983
1229,0.871787,8.969348,0.57241
1230,0.486189,9.15137,0.483794
1231,0.03832,9.299861,0.488584
1232,-0.040715,9.587263,0.438289
1233,0.160466,9.675879,0.433499
1234,0.500559,9.515413,0.359253
1235,1.032253,9.096284,0.414338
1236,1.539998,8.756191,0.368833
1237,1.920806,8.667576,0.186812
1238,1.935176,8.954978,0.172441
1239,1.664539,9.486672,0.364043
1240,1.17356,9.881851,0.6251
1241,0.747246,10.020762,0.828677
1242,0.395178,9.958491,1.27415
1243,0.366438,9.86748,1.745969
1244,0.797542,10.054292,1.904041
1245,1.429827,10.542876,2.059717
1246,1.78908,10.892549,1.84656
1247,2.189048,11.563154,1.252595
1248,2.308799,11.714041,0.59157
1249,1.631008,11.366763,0.285007
1250,-0.01437,11.326047,0.232317
1251,-1.425037,11.555969,0.555645
1252,-2.45729,11.730806,1.113684
1253,-2.862048,11.879297,2.038162
1254,-2.780618,11.903247,2.830913
1255,-2.133962,11.860137,3.03449
1256,-1.930386,12.516372,3.434458
1257,-2.141147,14.1378,3.216511
1258,-2.062112,14.68147,3.820056
1259,-0.922083,14.942527,4.282295
1260,0.131726,14.827566,3.942202
1261,0.512534,13.529465,3.767366
1262,1.355581,12.178674,3.530259
1263,1.27894,11.076965,2.47645
1264,1.19751,10.576406,1.611848
1265,1.029858,10.41115,1.346001
1266,1.065784,10.844648,0.910107
1267,1.8274,11.867322,0.261057
1268,2.735112,13.098362,-0.512534
1269,3.137476,13.397739,-1.413062
1270,2.957849,13.091177,-1.801055
1271,2.567461,12.866045,-0.996328
1272,2.124382,12.760664,0.524509
1273,1.252595,12.633728,1.872905
1274,0.239502,12.3104,2.869233
1275,-0.119751,11.896062,3.396138
1276,-0.526904,11.400293,3.815266
1277,-1.28373,10.751243,3.963757
1278,-1.219065,10.176438,3.233276
1279,-1.034648,9.536968,2.375859
1280,-1.144819,9.081914,1.410667
1281,-1.21667,9.057964,0.706531
1282,-0.862207,8.873547,0.134121
1283,-0.124541,8.382568,0.016765
1284,0.752036,7.874824,0.488584
1285,1.726809,7.237749,0.972378
1286,2.327959,6.619834,1.238225
1287,2.775828,5.975574,1.353186
1288,3.190166,5.580396,1.343606
1289,3.317102,5.451064,1.219065
1290,3.307522,5.439089,0.799937
1291,3.230881,5.592371,0.261057
1292,2.945874,5.781577,0.071851
1293,2.902764,5.836663,-0.318538
1294,3.027305,5.949229,-0.457449
1295,3.288362,6.13604,-0.165256
1296,3.570974,6.389912,0.411943
1297,3.671565,6.562354,0.991538
1298,3.520679,6.564749,1.681304
1299,3.456013,6.519243,2.282454
1300,3.441643,6.433022,3.0776
1301,3.724255,6.545588,4.140989
1302,3.832031,7.268884,5.213958
1303,3.73144,8.729846,6.11209
1304,3.216511,10.595566,6.638994
1305,2.732717,12.468472,6.559958
1306,1.951941,13.680352,6.289321
1307,0.996328,13.924644,6.270161
1308,0.332908,13.44085,6.763535
1309,0.356858,12.490027,7.398215
1310,1.060994,10.779983,7.144343
1311,1.858535,9.101074,6.09772
1312,2.660867,7.249724,4.679868
1313,3.163821,5.805527,3.64043
1314,3.405718,5.010381,3.09197
1315,3.331472,4.624783,2.469265
1316,4.006868,5.063071,1.935176
1317,5.666616,11.311677,0.934058
1318,5.321733,19.619401,-1.180745
1319,4.253555,19.619401,-0.419128
1320,1.714834,19.619401,2.280059
1321,-0.143701,14.475498,3.64522
1322,1.24541,12.846885,3.71228
1323,1.607058,12.185859,3.360212
1324,0.778381,10.171648,2.052532
1325,0.510139,8.023315,0.883762
1326,1.152004,6.76593,0.011975
1327,1.513652,6.306086,-1.489702
1328,1.642983,6.77072,-3.403323
1329,1.968706,7.3096,-4.931345
1330,2.026187,7.211404,-5.939648
1331,2.002236,7.592212,-6.162385
1332,2.023792,9.477092,-4.9529
1333,1.729204,11.860137,-2.888394
1334,1.008303,13.172607,-0.684976
1335,0.359253,12.973821,1.087339
1336,-0.285007,11.702065,2.217788
1337,-0.934058,10.320139,1.78429
1338,-1.326841,9.362131,0.677791
1339,-1.571133,8.679551,-0.63468
1340,-1.530417,8.763376,-1.324446
1341,-0.859812,9.445957,-0.996328
1342,0.035925,10.595566,-0.292192
1343,0.730481,11.304492,0.234712
1344,0.941243,11.409873,0.428708
1345,0.847837,10.976375,0.409548
1346,0.871787,10.39199,0.007185
1347,0.960403,9.994417,-0.143701
1348,1.058599,9.850715,-0.04311
1349,1.185535,10.027947,0.455054
1350,1.379531,10.324929,0.878972
1351,1.209485,10.3872,1.094524
1352,0.890947,10.238708,1.444197
1353,0.661025,10.066267,1.513652
1354,0.522114,9.924961,1.298101
1355,0.459844,9.886641,1.015488
1356,0.376018,9.936936,0.845442
1357,0.246687,10.090217,0.632285
1358,0.146096,10.380015,0.541274
1359,0.016765,10.518926,0.538879
1360,0.055085,10.557246,0.687371
1361,0.126936,10.595566,0.888552
1362,0.270637,10.662627,0.773591
1363,0.469424,10.528506,0.59157
1364,0.680186,10.432705,0.213157
1365,0.881367,10.248289,-0.179626
1366,0.962798,10.083032,-0.411943
1367,0.922083,10.035132,-0.61073
1368,0.838257,10.068662,-0.706531
1369,0.890947,10.068662,-0.60594
1370,1.094524,10.083032,-0.526904
1371,1.135239,9.958491,-0.282612
1372,1.113684,9.716594,-0.138911
1373,0.843047,9.498647,-0.189207
1374,0.385598,9.441167,-0.196392
1375,-0.150886,9.553733,-0.225132
1376,-0.548459,9.83874,-0.402363
1377,-0.773591,10.102192,-0.490979
1378,-0.859812,10.44468,-0.395178
1379,-0.706531,10.633887,-0.344883
1380,-0.538879,10.870994,-0.210762
1381,-0.285007,10.976375,0.00958
1382,0.184417,11.00751,0.150886
1383,0.65863,10.744058,0.162861
1384,1.046624,10.255474,-0.011975
1385,1.084944,9.84832,-0.253872
1386,0.826282,9.563313,-0.455054
1387,0.179626,9.453142,-0.63947
1388,-0.433499,9.596843,-0.859812
1389,-0.893342,9.812395,-0.972378
1390,-1.025068,10.092612,-1.123264
1391,-0.694556,10.526111,-1.276545
1392,-0.107776,10.787168,-1.312471
1393,0.747246,10.892549,-1.389111
1394,1.769919,10.794353,-1.247805
1395,2.852468,10.40636,-0.960403
1396,3.858376,10.025552,-0.598755
1397,4.471501,9.86269,-0.071851
1398,4.639153,9.929751,0.158071
1399,4.188889,10.162068,0.301772
