acc x,acc y,acc z
-0.240356,9.520432,-0.526215
-0.167526,9.570862,-0.491241
-0.093124,9.621384,-0.48407
-0.117508,9.609222,-0.467758
-0.057907,9.637604,-0.477707
-0.056488,9.612717,-0.482239
-0.082962,9.570785,-0.47081
-0.117706,9.549759,-0.560089
-0.156799,9.586014,-0.508835
-0.253525,9.541733,-0.559128
-0.316956,9.493759,-0.603149
-0.437393,9.499649,-0.639908
-0.530807,9.554321,-0.589401
-0.566208,9.56694,-0.571732
-0.595123,9.565445,-0.590042
-0.57196,9.645157,-0.467926
-0.54921,9.662201,-0.467438
-0.482895,9.588226,-0.4888
-0.398041,9.564362,-0.373474
-0.310913,9.479935,-0.286728
-0.195282,9.3647,-0.156403
-0.089737,9.333954,-0.118469
0.079941,9.235596,-0.047531
0.105194,9.205032,0.042206
-0.101654,9.270569,0.040726
-0.509842,9.560684,0.185822
-1.00351,10.200562,0.348038
-1.345169,11.102524,0.585022
-1.24408,12.148438,1.044266
-1.034729,13.05722,1.578247
-0.445679,13.337814,2.141251
0.393188,13.190979,2.730911
0.864349,12.535416,2.855103
1.22377,11.695419,2.692139
1.413544,10.649628,2.480835
1.315094,9.298614,2.297562
1.058518,8.128296,2.505234
0.510727,7.446228,2.510742
0.050232,7.714676,2.586731
-0.221481,8.375092,2.790756
-0.297195,8.931335,3.097153
-0.252075,9.215149,3.45369
-0.167007,9.07695,3.478348
-0.0728,8.676926,3.362549
-0.21344,8.013214,3.215271
-0.223785,7.438522,3.355087
-0.217117,6.943512,3.422913
-0.138702,6.551453,3.674683
-0.036163,6.364014,3.673904
0.113434,6.328995,3.710648
0.324402,6.381515,3.524933
0.458817,6.612732,3.688766
0.617752,6.755554,3.737137
0.817368,6.940201,3.861816
1.044952,7.141113,4.006592
1.344421,7.21022,3.983551
1.628906,7.243607,4.096298
1.735321,7.224045,4.367401
1.749176,7.133942,4.630783
1.714874,6.957352,4.755447
1.672867,6.845535,4.702286
1.596542,6.880722,4.573227
1.41655,7.134262,4.429428
1.210052,7.599869,4.355118
0.905289,8.127838,4.455994
0.528748,8.902252,4.526703
0.19812,9.506104,4.840866
0.108368,9.99588,5.002106
0.388763,10.294815,5.229462
0.640427,10.402115,5.381927
0.750137,10.450302,5.638641
0.640518,10.478134,5.427216
0.377029,10.296066,4.984543
0.316986,9.637253,4.678574
0.469681,8.718689,4.501678
0.873703,7.945267,4.490616
1.499481,7.595337,4.616867
2.231644,7.762528,4.628845
2.355545,9.093048,4.558762
1.134247,12.478485,5.154861
1.038071,16.407547,4.726334
2.074142,18.157547,2.24234
2.691284,16.612305,-0.54596
0.830887,12.904419,-0.822998
-0.750748,9.488434,-0.04982
-1.020493,6.853455,0.56868
-0.640457,4.454391,0.460388
-0.983688,2.127014,0.092178
-1.420548,1.29631,0.080902
-1.764191,2.005539,-0.099258
-1.956024,3.975906,-0.158112
-1.447922,6.619842,-0.082825
-0.541794,10.183487,-0.228043
-0.128632,13.044617,-0.298386
-0.035706,14.602493,0.029648
-0.020187,14.281082,0.826691
0.525803,12.450119,1.824814
0.64653,10.399689,2.442444
0.302872,8.299728,2.523895
-0.287659,6.480179,1.79036
-0.777847,5.602234,0.896179
-1.244644,5.449005,0.175064
-1.675583,5.934555,-0.200623
-2.272003,6.913895,-0.409134
-2.695419,8.218307,-0.701675
-2.829925,9.511826,-1.298111
-2.591995,10.484238,-2.028732
-2.011444,10.874741,-2.57135
-1.511764,10.60994,-2.721619
-1.270264,9.933395,-2.498764
-1.007187,9.20398,-2.026779
-0.678299,8.688629,-1.544617
-0.220093,8.454834,-0.994965
0.327942,8.570648,-0.37471
0.682327,8.896927,0.115387
0.8172,9.372467,0.279572
0.667725,9.867249,0.184082
0.315613,10.161682,0.054688
-0.052139,10.206665,0.046005
-0.147476,9.967804,0.27121
0.046021,9.733368,0.703278
0.516602,9.517029,0.820129
0.99295,9.217621,0.632538
1.127777,8.984818,0.291885
0.722473,9.287613,0.04393
-0.306366,10.123581,-0.287384
-1.636368,10.969666,-0.601257
-2.892944,11.508621,-0.485107
-3.774383,11.894562,-0.150177
-3.634827,12.151871,0.031082
-2.667953,12.150909,0.16333
-1.672852,12.019485,0.55603
-1.972076,12.35321,-0.053635
-3.074631,13.946976,-2.336883
-2.404709,15.709686,-3.409241
-0.53273,15.585953,-2.974564
0.569016,12.829483,-2.164764
0.73114,9.768814,-1.49144
1.041504,7.993301,-1.203751
1.169891,7.901764,-1.183167
0.871689,9.549683,-1.250854
0.716278,12.028687,-1.058716
0.816132,13.757263,-0.818771
0.562943,14.412292,-0.483704
0.624908,14.659409,0.055969
1.074036,14.746017,0.565872
1.006256,14.255478,0.787735
0.551361,13.337296,0.902817
0.384811,12.230576,0.76799
0.605774,11.018738,0.323883
0.691971,10.10582,0.02742
0.621445,9.514664,0.005066
0.287048,9.083603,-0.063232
-0.081573,8.681549,-0.366974
-0.466415,8.245468,-0.743469
-0.845352,7.765884,-1.063309
-1.250732,7.218033,-1.060898
-1.840622,6.475784,-0.504395
-2.082016,5.656036,0.390823
-1.816223,4.902359,1.387848
-1.277115,4.259003,2.282242
-0.654892,3.730042,2.978607
0.020645,3.426926,3.489166
0.836685,3.28717,3.763946
1.641846,3.304443,3.633301
2.390472,3.345673,3.054459
2.926407,3.313324,2.090958
3.053207,3.251327,1.132721
2.783127,3.131897,0.554993
2.186615,3.016663,0.663345
1.299866,3.004532,1.491074
0.289917,3.187286,2.751236
-1.158112,3.870834,4.411575
-3.413757,5.688034,6.510452
-5.806671,9.084076,8.394989
-7.465103,14.754883,10.233307
-6.794388,18.595932,10.037766
-4.024994,19.309692,6.499222
-0.802719,16.95018,2.541626
1.459442,13.141815,0.916107
3.043091,9.737717,0.761108
5.754578,7.347702,0.707535
4.7668,10.634689,4.220978
3.615036,16.856216,6.795868
6.071457,19.309692,3.61232
6.157501,18.522415,-2.179367
2.453491,15.99292,-4.816559
-0.947906,12.622696,-2.011185
-0.858429,8.263657,1.624146
0.041,3.112183,1.801147
0.383041,-1.753082,-0.265625
0.355957,-4.481796,-0.8004
-0.509827,-4.505158,-0.302856
-1.540527,-1.266693,0.130081
-2.233231,3.875061,0.674728
-2.445877,10.528046,2.026703
-1.768784,17.350815,2.244583
0.595703,19.309692,0.070312
1.908203,19.309692,-2.412781
1.412506,14.595413,-1.739822
-0.624237,8.851288,1.167557
-2.180878,4.958817,2.788605
-3.04985,2.761337,2.224609
-3.479431,2.584259,0.826233
-3.226257,3.858688,-0.040222
-2.602432,5.820435,-0.53244
-1.777313,7.872894,-1.100967
-0.671219,9.529617,-1.239014
0.178162,10.413132,-1.25415
0.602051,10.085785,-1.475433
0.562561,8.956207,-1.578278
0.082825,7.914108,-1.386871
-0.648682,7.073914,-1.349472
-1.015564,6.90004,-1.818955
-0.869751,7.433075,-2.226273
-0.541885,8.706558,-2.08284
-0.305389,9.963516,-1.458786
-0.45047,10.545746,-0.262665
-0.581268,10.263626,1.41275
-0.556778,9.9077,2.774475
-0.094894,9.670258,2.680725
0.604874,9.592133,1.245697
1.029633,9.885468,-0.1017
0.848587,10.341751,-0.51062
-0.234009,10.926453,-0.207291
-1.539993,11.445877,-0.183929
-2.980011,12.013504,-0.257584
-3.902573,12.365204,-0.352371
-3.879913,12.742416,-0.159256
-2.9814,12.79509,0.499847
-2.170075,12.426544,1.09404
-2.178665,13.047516,-0.410126
-2.81723,14.528397,-2.09375
-1.970947,15.663177,-2.163879
-1.373978,14.243698,-1.930542
-1.23349,10.967453,-1.08783
-1.064194,8.459885,-0.792511
-0.375977,7.452423,-1.410217
-0.534592,8.20108,-2.005798
-0.445969,10.12738,-1.760971
-0.922363,12.521698,-1.087967
-1.700745,14.3479,-0.745544
-1.899826,15.407059,-0.615768
-0.146927,15.606796,-0.340546
1.427612,14.800064,0.294785
1.499817,13.116074,1.056015
0.551651,11.240494,1.083633
-0.252319,9.697449,0.764145
-0.180008,9.125931,1.294769
0.161621,8.904282,1.575287
0.149902,8.670731,1.676483
-0.057266,8.877121,1.981445
-0.054962,9.149734,1.773529
-0.061066,9.205704,0.917221
-0.223404,8.950439,0.110931
-0.820038,8.448257,-0.487991
-1.390656,7.633194,-0.567749
-1.745178,6.70488,-0.202362
-1.754456,5.569473,0.541443
-1.470337,4.330048,1.803375
-0.859543,3.304047,2.82196
-0.004898,2.571518,3.471558
1.107635,2.038238,3.663727
2.345642,1.871826,3.195724
3.293442,1.871185,2.602447
3.792923,1.778351,1.729446
3.867157,1.717804,0.872757
3.437286,1.548767,0.18251
2.853012,1.517029,-0.156891
2.226868,1.756241,0.368317
0.992035,2.211899,1.467194
-0.699219,3.175537,3.594315
-3.242386,4.943466,6.283585
-7.687683,10.409241,10.962234
-10.216965,19.309692,19.241516
-3.223495,19.309692,18.21196
8.417526,19.309692,8.219223
8.011414,18.55246,-1.585342
4.789261,12.66777,-5.311585
2.902206,7.569824,-6.057358
2.8284,6.439591,-1.970261
1.648453,10.386215,6.34317
2.355331,14.08313,9.150345
3.837921,14.433044,4.486237
1.802658,12.21141,-0.93219
-1.669357,11.392563,-2.408218
-2.092819,11.566238,-2.105103
-0.344986,9.61087,-0.303375
-0.040863,5.414536,0.996964
-1.990295,1.345962,0.176849
-3.040604,-0.724762,-0.357864
-2.236649,-0.835419,0.257278
-1.093613,0.908142,-0.003922
0.195404,4.333389,-0.562408
1.084045,8.266388,0.057007
1.179062,12.977112,1.936401
1.107285,16.74759,2.801681
1.013672,17.04042,1.596222
0.191177,14.005249,0.17421
-1.132828,10.370254,-0.200989
-2.246246,7.514175,0.12915
-2.833023,5.739441,0.319611
-3.020172,5.202423,0.311188
-3.041031,5.315857,0.138199
-2.741806,5.963455,0.163651
-2.231705,6.841583,0.362259
-1.30809,7.896149,0.687119
-0.087708,8.966324,0.824738
0.608536,9.706146,0.685181
0.732071,9.759491,0.120453
0.201385,9.098267,-0.746689
-0.497849,8.118256,-1.39682
-1.006073,7.324112,-1.81041
-1.093811,7.064484,-2.279404
-0.960434,7.689423,-2.52095
-0.84111,9.049072,-2.342331
-0.836182,10.460114,-1.705399
-0.858658,10.817032,-0.313492
-0.91893,9.978195,1.579544
-0.76088,8.844467,2.909973
0.051834,8.38913,2.536865
0.96524,8.79187,0.883957
1.293167,9.707291,-0.882553
0.259628,10.226456,-1.490448
-1.751617,10.32962,-1.218323
-3.779861,10.577194,-0.576874
-4.773331,11.217957,-0.293259
-4.272736,11.759109,-0.312195
-2.881317,11.574203,-0.006516
-1.751236,11.32132,0.301132
-1.39212,11.922699,-0.671158
-1.619095,13.57695,-1.977081
-1.869827,15.227371,-1.735886
-2.437027,15.084305,-1.900482
-2.487686,12.853455,-1.700363
-1.582504,10.574097,-1.506576
-0.60997,9.273956,-1.95253
0.027374,9.446945,-2.57196
0.109467,11.042313,-2.835876
0.019363,13.314423,-2.617493
-0.210297,15.150055,-2.199844
-0.07666,15.773499,-1.558914
0.773773,15.47345,-0.810516
1.749481,14.986923,0.0448
1.660126,14.182709,0.499191
0.786926,12.919922,0.645309
-0.02182,11.49855,0.740265
-0.399216,10.270142,0.975998
-0.315628,9.33783,1.512466
-0.08017,8.708252,1.840713
0.100113,8.504074,1.744492
0.110641,8.553268,1.460037
0.006332,8.522339,0.829773
-0.162064,8.286148,0.098953
-0.512268,7.81044,-0.280441
-1.078445,7.093033,-0.200165
-1.492996,6.225571,0.301392
-1.644119,5.188797,1.223618
-1.532547,4.099701,2.383148
-1.177643,3.185669,3.328751
-0.552536,2.476715,3.992065
0.273376,1.975952,4.255371
1.265335,1.803802,4.060837
2.193542,1.903931,3.50145
2.833984,2.142624,2.782471
3.252762,2.427429,2.228546
3.366684,2.789902,1.917862
3.0672,3.243866,1.796982
2.282639,3.762558,1.913498
0.957581,4.3573,2.229172
-0.766159,5.073929,2.992004
-2.587143,6.173721,4.262482
-4.284409,8.215881,6.121139
-5.308823,11.447861,8.335876
-5.196762,15.062485,9.892532
-3.41272,17.830994,9.665909
-0.116013,18.196701,7.634155
2.895752,16.70964,5.477249
4.654877,14.713226,3.607895
5.572967,12.595795,1.446213
5.873703,11.853912,-0.439453
4.616135,14.610626,1.506851
4.287399,18.208115,3.432282
5.67749,19.309692,2.890778
5.991882,17.526215,0.746964
3.11792,13.670517,-1.301621
-0.102051,10.073257,-0.966507
-0.413101,6.763413,1.875717
1.190338,3.266647,4.298782
1.122009,0.312012,3.517029
0.116455,-1.522629,1.484787
-0.870926,-2.116074,0.353394
-2.398956,-0.998489,-0.789902
-3.578369,2.194305,-1.847961
-3.965057,6.918304,-1.915192
-4.218811,12.929962,-1.299667
-3.02832,18.008362,-1.520218
-0.400543,19.309692,-2.928009
0.365936,18.469696,-3.43013
-1.138245,14.202316,-1.8703
-3.09169,9.014313,0.331451
-3.961716,5.56546,2.056442
-4.173279,3.792084,2.741577
-3.532135,3.645126,2.598968
-1.684143,4.995438,2.175079
0.73436,7.291687,1.668625
2.764374,9.684677,0.995209
3.670349,11.245102,0.385086
3.650345,11.575424,0.124588
2.910599,10.513077,0.351898
1.925888,9.021652,0.8004
0.919067,7.77594,0.848541
-0.025589,7.17952,0.453552
-0.678391,7.255661,-0.420502
-0.99408,7.868713,-1.65686
-1.226395,8.700562,-2.66098
-1.421219,9.261185,-3.138596
-1.706543,9.431885,-2.534683
-2.163605,9.218201,-1.140411
-2.408936,9.048614,0.143448
-2.181671,9.057587,0.927566
-1.548477,9.014236,0.930756
-0.823868,8.901901,0.28865
-0.414093,9.048965,-0.338806
-0.059174,9.116409,-1.030396
0.171707,9.133682,-1.440689
0.308456,9.244705,-1.487366
-0.130676,9.471054,-1.23851
-0.787613,9.678513,-1.15097
-1.320831,9.827164,-1.047501
-1.726898,9.85466,-1.172409
-1.957504,9.947037,-1.327927
-2.202637,9.977066,-1.599976
-2.68808,9.835922,-1.843872
-2.975159,9.612228,-1.827972
-2.847214,9.438217,-1.35495
-2.548035,9.365204,-1.073013
-2.242432,9.412903,-0.864899
-1.822571,9.534409,-0.453522
-1.460983,9.528824,-0.167435
-1.129013,9.444672,0.096069
-0.664978,9.279404,0.224503
-0.461105,9.392685,-0.161591
-0.5569,9.833756,-1.471741
-0.718307,11.110901,-2.326675
-0.809402,11.956909,-2.923141
-1.216019,12.028763,-2.788406
-1.159714,12.12442,-2.047745
-0.426422,12.531464,-1.880722
0.434738,12.815155,-1.984528
1.389664,12.776535,-2.364746
1.938095,12.57576,-2.434387
1.807495,12.399506,-1.962952
1.30574,12.36969,-1.105942
0.745255,12.647171,-0.098999
0.319473,13.043076,0.532578
0.076111,13.078415,0.667877
-0.016403,12.606369,0.249466
-0.173141,12.040405,-0.566071
0.01828,11.506027,-1.300156
0.328842,10.659103,-1.91182
1.060028,10.020569,-1.922516
1.493378,9.06221,-1.986008
1.609589,8.425613,-1.894394
1.884918,8.078476,-1.578369
1.892532,7.904098,-1.154205
1.591446,7.834442,-0.657486
1.2099,7.832199,-0.100891
0.912384,7.82074,0.112625
0.79007,7.840042,0.023178
0.853836,7.926559,-0.152145
0.901016,8.056976,-0.057922
1.113724,8.032379,0.092819
1.484085,8.081924,0.32164
1.806869,8.177826,0.465301
2.00734,8.186813,0.346588
2.095459,8.179947,-0.126709
2.014114,7.923767,-0.514328
1.630295,7.621414,-0.685425
1.123901,7.354263,-0.66748
0.526047,7.22171,-0.655807
0.189453,7.438965,-0.431488
0.070648,7.927567,-0.108383
0.045929,8.80719,0.13765
0.017273,9.644836,0.149551
0.193939,10.201675,0.168045
0.347488,10.430328,0.301819
0.379913,10.29097,0.555664
0.355042,9.995651,0.968933
0.460922,9.635513,1.252228
0.51535,9.42659,1.148529
0.404404,9.28157,0.779449
0.294708,9.378265,0.297302
0.294418,9.510086,-0.230896
0.311554,9.66217,-0.433167
0.269516,9.585495,-0.168884
0.18074,9.236725,0.07785
0.029724,8.749863,0.501633
0.050064,8.085114,0.905853
0.06192,7.641479,1.179459
0.027313,7.608185,1.363388
-0.023499,7.993179,1.210556
-0.100006,8.604752,0.750092
-0.220779,9.465241,-0.042587
-0.323563,10.717865,-0.910217
-0.467972,12.168869,-1.503998
-0.389008,13.375534,-1.915787
0.172729,13.331192,-2.071304
0.606232,12.051529,-1.653274
0.433655,10.562302,-0.841766
-0.138733,9.209061,-0.173096
-0.69841,8.58609,-0.214615
-1.194443,8.37236,-0.724579
-1.572449,8.455124,-1.482437
-1.545044,8.668243,-2.170441
-1.157974,8.909225,-2.713837
-0.618698,9.206573,-2.882034
0.007706,9.492874,-2.678406
0.688904,9.788971,-2.210129
1.234467,9.863693,-1.499771
1.466324,9.574997,-0.664566
1.294205,9.183914,0.141098
0.794907,8.887909,0.58699
0.161423,8.991074,0.440567
-0.440781,9.529999,-0.240494
