acc x,acc y,acc z
-0.234344,9.47261,-1.335938
-0.161011,9.486801,-1.393021
-0.096024,9.493805,-1.429703
-0.106873,9.573807,-1.437149
-0.17244,9.684189,-1.423294
-0.283966,9.802902,-1.453369
-0.412628,9.904526,-1.459427
-0.579849,9.983154,-1.469879
-0.713501,9.983856,-1.49762
-0.789825,9.91124,-1.392303
-0.875183,9.837738,-1.294861
-0.961975,9.77504,-1.255081
-1.061432,9.753464,-1.194015
-1.156937,9.763367,-1.163834
-1.283722,9.795303,-1.158142
-1.400726,9.844543,-1.179153
-1.472916,9.867508,-1.116577
-1.557114,9.887695,-1.061813
-1.619415,9.920425,-0.967712
-1.62265,9.970108,-0.862793
-1.615189,10.020798,-0.859283
-1.649918,9.986084,-0.777863
-1.67952,9.9655,-0.600021
-1.755936,10.091049,-0.372635
-1.792084,10.355469,0.087235
-1.766708,10.716415,0.63829
-1.756927,11.120438,1.049652
-1.806534,11.488052,1.269791
-1.906128,11.793442,1.002289
-1.966507,11.867935,0.451065
-1.791397,11.549591,0.262344
-1.336487,11.038239,1.037903
-0.631302,10.382568,2.041824
-0.115067,9.522766,2.764175
-0.234177,8.417206,3.294037
-0.959686,7.381241,3.493683
-1.571747,6.88031,3.284638
-1.757431,7.068146,2.777328
-1.737183,7.670075,2.536301
-1.441467,8.334061,2.728455
-0.995224,8.814499,2.898224
-0.76886,9.001984,2.867523
-0.692108,8.907455,2.843933
-0.534332,8.582565,2.818039
-0.428452,8.251541,2.834396
-0.41626,7.84935,2.84552
-0.451492,7.490005,2.854355
-0.552414,7.365387,2.939362
-0.73053,7.421066,3.014755
-0.888199,7.545639,3.161331
-1.019196,7.651154,3.312088
-1.124664,7.705414,3.451691
-1.279526,7.608917,3.490006
-1.460281,7.495361,3.449249
-1.594452,7.422897,3.457108
-1.714966,7.325302,3.518051
-1.859161,7.280426,3.628357
-1.913117,7.30693,3.933594
-1.880981,7.29483,4.283127
-1.713303,7.258987,4.618973
-1.462158,7.247482,5.064133
-1.087128,7.145493,5.525711
-0.812363,6.954269,5.761978
-0.693527,6.844589,5.911987
-0.59346,6.889359,6.028259
-0.479568,7.183228,5.950501
-0.563889,7.629272,5.757278
-0.946991,8.183868,5.448166
-1.474136,8.754669,5.026535
-1.816421,9.228409,4.818619
-2.252213,9.715591,4.734299
-2.56366,10.539459,4.857803
-2.200836,11.573425,5.321045
-2.072189,12.405304,5.559769
-1.967819,13.319412,5.202469
-2.161484,13.406052,4.5047
-2.793884,11.353302,3.591537
-3.689652,7.203522,2.555039
-4.781281,4.028015,2.375412
-4.83696,3.231171,2.932297
-3.323502,4.498001,3.445877
0.227097,6.813446,3.550079
3.839432,9.126038,2.62912
5.757675,10.677063,1.921173
5.945496,11.125229,1.554092
4.457062,10.497818,1.971741
2.296799,9.268143,2.327423
0.935806,8.350769,2.199188
0.841568,8.081787,2.124054
1.177765,8.17775,1.815903
1.024063,8.518738,1.383972
0.587357,8.885086,0.885208
0.086884,9.344208,0.515305
-0.183701,9.865616,0.293335
-0.094589,10.055786,0.134247
-0.056076,9.974976,-0.052505
-0.071915,9.651459,-0.144638
-0.102432,9.227554,-0.440124
-0.09581,8.83226,-0.660309
0.164948,8.609604,-0.827728
0.204193,8.555038,-1.179398
0.307831,8.633438,-1.42807
0.309158,8.748932,-1.600952
0.288239,8.907013,-1.723282
0.328705,8.99118,-1.687851
0.411011,9.097458,-1.490936
0.463928,9.152191,-1.363632
0.410172,9.136765,-1.375595
0.312653,9.151703,-1.355438
0.112762,9.168304,-1.396256
-0.045471,9.198776,-1.442886
-0.25351,9.29773,-1.450149
-0.459015,9.428329,-1.374878
-0.627823,9.482788,-1.334381
-0.777969,9.50853,-1.269486
-0.816818,9.526703,-1.200806
-0.808777,9.58223,-1.083603
-0.721344,9.847595,-0.799789
-0.642715,10.359604,-0.363052
-0.605026,11.021622,0.212097
-0.528702,11.531967,0.846146
-0.41687,11.562836,1.269958
-0.165634,11.192352,1.338852
0.174545,10.695725,1.02507
0.568253,10.3694,0.615097
0.964569,10.245254,0.283768
1.379166,10.297806,0.044998
1.660095,10.497559,-0.053696
2.149399,10.759415,0.002701
2.950104,11.297409,-0.039841
3.569076,12.194748,-0.315308
3.548752,13.041351,-0.545502
2.774796,13.623291,-0.239914
1.50235,13.643265,0.262863
0.123001,12.810226,0.846939
-0.829819,11.561295,1.386551
-1.442032,10.640244,1.175613
-2.426605,10.366501,0.339783
-3.533585,10.433197,-0.455048
-4.129852,10.548935,-1.305038
-4.178452,10.68364,-2.269302
-4.036346,10.866699,-2.9729
-4.039185,10.995407,-2.999634
-4.234436,10.899948,-2.418381
-4.174515,10.713608,-1.45575
-3.564377,10.682999,-0.348419
-2.76123,10.793793,0.212067
-2.158966,10.937729,0.134506
-1.720215,10.98941,-0.224564
-1.125442,10.9655,-0.489609
-0.337296,10.811188,-0.733688
0.269714,10.521423,-0.994522
0.403473,10.197266,-1.041946
0.165359,9.934006,-0.896179
-0.11145,9.834,-0.593994
-0.286148,9.848663,-0.332458
-0.384781,9.872787,-0.119293
-0.535019,9.776077,0.039749
-0.851974,9.498901,0.108551
-1.198914,9.065231,0.148727
-1.488678,8.549011,0.318573
-1.75705,8.036179,0.681335
-1.927673,7.544052,1.183624
-1.930023,7.133789,1.65683
-1.750107,6.769959,1.935379
-1.487045,6.385727,2.020493
-1.325867,6.045029,1.983048
-1.226547,5.781006,1.928101
-1.110565,5.536621,1.991409
-1.01944,5.372711,2.047409
-0.852936,5.360214,2.157059
-0.651779,5.446686,2.361969
-0.483063,5.584427,2.701416
-0.402374,5.69371,3.133148
-0.514801,5.810242,3.874817
-0.402954,5.913406,4.79744
0.379059,5.843414,5.61441
1.190308,5.594177,6.260696
1.161056,5.523056,6.838821
0.723541,5.829269,6.998032
0.440765,6.63884,6.912033
0.217468,7.785797,6.880829
0.129349,8.966827,6.591309
0.163254,9.931747,6.28598
0.019333,10.653793,6.068466
-0.551849,11.097839,5.699539
-1.53656,11.195572,5.313477
-2.627945,11.08313,4.753525
-3.283203,10.661804,4.6922
-3.772736,10.068695,4.495071
-5.24205,10.120071,3.281326
-5.674957,12.327026,3.932266
-4.439087,14.783951,4.327881
-4.80336,15.522461,2.638596
-5.51799,14.230209,2.013443
-4.440979,11.026886,2.642227
-3.090698,7.608521,1.952652
-1.34874,5.792084,2.012176
1.286285,5.259476,2.462631
3.13205,5.245865,1.500641
3.609909,5.781982,-0.690872
2.936691,7.142349,-1.447464
2.823319,9.06955,-0.387451
3.426147,10.394348,-0.040909
4.040497,11.113556,-0.521118
3.730911,10.761887,-0.447708
2.988647,9.812103,0.204636
2.382904,8.753525,0.557144
1.726334,8.151993,0.811722
1.08168,8.106583,0.92485
0.579651,8.582871,0.532593
-0.107635,9.194092,0.035202
-0.933273,9.612991,-0.190308
-1.68602,9.791931,-0.26973
-1.875534,9.664581,-0.526184
-1.583084,9.341293,-0.625061
-0.908875,8.873642,-0.762192
-0.065521,8.494675,-0.920822
0.524673,8.2836,-0.954254
0.964569,8.348526,-0.983582
1.342529,8.630981,-1.043518
1.623978,9.100876,-1.025406
1.735062,9.532333,-0.932678
1.816238,9.79126,-0.776886
1.818665,9.868576,-0.523666
1.78157,9.673813,-0.267441
1.669556,9.406464,-0.060135
1.499481,9.283463,0.025558
1.377197,9.173614,0.083588
1.179672,9.117416,-0.006653
1.01474,9.014404,-0.049881
0.831177,8.975906,-0.210602
0.77478,9.02356,-0.280884
0.808594,9.208618,-0.348694
0.766968,9.479095,-0.558426
0.704193,9.704666,-0.705093
0.522797,9.807236,-0.77594
0.299149,9.878983,-0.680725
0.062927,9.812805,-0.42601
-0.169403,9.722015,-0.043381
-0.174011,9.703918,0.375183
0.033112,9.710678,0.406403
0.504929,9.499207,-0.101624
0.876999,9.41011,-0.740952
0.948486,9.586853,-1.215424
0.827927,9.946335,-1.329712
0.65033,10.273193,-1.137466
0.543182,10.391632,-0.625061
0.526505,10.432343,-0.298737
0.386917,10.457336,0.000565
0.139191,10.461502,0.236664
0.096756,10.675705,0.529663
0.764633,11.428558,0.46991
1.792831,12.946472,-0.551483
2.18277,13.975555,-1.708542
1.859726,13.53981,-1.281784
1.198883,12.435959,-0.306107
0.266327,11.473923,0.520218
-0.269852,10.703476,1.346588
-0.330536,10.307785,0.683563
-0.492401,10.503952,-1.097198
-0.967117,10.867722,-1.867355
-1.671356,10.745819,-2.228058
-2.449524,10.417297,-2.810425
-3.356918,10.213776,-3.007141
-4.142731,10.023926,-2.445785
-4.294891,9.91832,-1.878677
-3.489838,10.186539,-1.235947
-2.430099,10.783691,-0.622925
-1.691208,11.545715,-0.338364
-1.074829,12.365829,-0.154144
-0.616348,12.763687,-0.186188
-0.24939,12.630844,-0.434555
0.022171,11.981323,-0.811249
0.091339,11.027527,-1.067505
-0.022583,10.029709,-1.154602
-0.224976,9.332489,-1.21521
-0.308731,9.057754,-1.037918
-0.281677,9.000244,-0.670746
-0.282974,8.943298,-0.400665
-0.352554,8.845306,-0.19722
-0.527374,8.649506,0.022018
-0.807022,8.326981,0.278412
-1.103836,8.013153,0.559723
-1.398987,7.669617,0.959793
-1.572998,7.37233,1.359695
-1.57164,7.126785,1.572723
-1.45668,6.920563,1.520966
-1.363739,6.722321,1.287598
-1.360153,6.440353,1.113373
-1.427155,6.00856,1.128082
-1.497223,5.524353,1.268127
-1.522186,5.17099,1.633621
-1.431595,5.025818,2.011703
-1.214142,5.248337,2.286636
-0.971741,5.680222,2.615509
-0.661606,6.064453,3.073685
-0.397644,6.243774,3.607712
-0.101105,6.265442,4.238266
0.108582,6.270264,5.201019
0.059998,6.545151,6.184158
-0.10849,7.261795,6.961639
-0.116974,8.320557,7.41301
-0.042389,9.547882,7.309555
0.404373,10.693039,6.8591
1.388229,11.485321,6.57901
2.736038,12.049011,6.404083
3.074219,11.972687,5.803635
2.203384,11.191681,5.585998
1.16542,10.028259,5.775635
0.056488,8.775848,5.982468
-1.087341,7.550018,5.99437
-2.373184,6.692154,5.207474
-4.08905,7.904816,3.665253
-2.425064,11.438782,5.007339
-1.83049,14.362534,3.546158
-3.735352,15.8927,1.1371
-5.240799,15.247101,-0.122833
-5.3349,12.152206,-1.701492
-4.782059,8.864868,-1.400696
-2.057739,7.073441,1.304596
0.798386,6.060425,1.975723
2.305756,5.678696,0.892044
2.058762,6.418289,-0.238602
1.653458,8.113159,-0.321304
2.741531,9.58461,-0.713181
3.769867,10.213745,-0.831818
4.072739,9.887421,-0.346329
4.026718,8.962677,0.169266
3.809296,8.088486,0.610794
3.192749,7.448746,1.05896
2.199341,7.59195,1.085083
1.067581,8.313446,0.629349
-0.132034,9.11142,-0.088776
-1.386688,9.694321,-0.577286
-2.422043,9.905716,-0.668304
-2.636902,9.769241,-0.43367
-2.232407,9.280746,-0.2948
-1.292343,8.700073,-0.460388
-0.252869,8.29631,-0.628937
0.62471,8.247635,-0.76001
1.36319,8.425735,-0.783905
1.869141,8.834793,-0.884079
2.149109,9.362579,-0.933624
2.257553,9.757843,-0.896881
2.175766,10.052124,-0.7659
2.005768,10.102142,-0.490738
1.883057,9.96077,-0.324814
1.714539,9.812057,-0.300476
1.612305,9.621796,-0.391907
1.558762,9.519852,-0.145264
1.484985,9.395935,-0.175552
1.375473,9.393829,-0.236633
1.13707,9.295013,-0.162949
0.860382,9.198257,-0.278214
0.695511,9.091736,-0.423828
0.474564,9.04718,-0.464233
0.25502,9.19342,-0.403717
0.062515,9.525986,-0.201126
0.062042,9.953095,-0.119568
0.226639,10.315979,0.004501
0.465454,10.463699,0.014053
0.703125,10.085205,-0.159409
0.91626,9.656464,-0.558243
0.834839,9.595184,-0.881149
0.485931,9.876709,-0.774673
0.225769,10.176498,-0.591141
0.291702,10.423935,-0.501526
0.522965,10.396378,-0.319916
0.710739,10.335434,0.079163
1.189163,10.486999,0.455872
1.794754,11.337372,0.029114
1.899094,12.535263,-1.014587
1.552612,12.891098,-0.788193
0.965134,12.405991,-0.12291
0.230118,11.688171,0.228302
-0.452881,10.989807,0.545502
-1.015503,10.364975,-0.038528
-1.468231,10.274994,-1.023178
-1.894424,10.432419,-2.084335
-2.569946,10.709183,-3.058044
-3.467697,10.989929,-3.244385
-4.458374,11.226196,-2.718903
-4.982239,11.4095,-2.251404
-4.603119,11.736847,-1.699143
-3.313461,12.258682,-0.897461
-2.201111,12.806519,-0.384048
-1.319214,13.292862,0.157608
-0.585403,13.482498,0.404602
-0.163742,13.141312,0.283356
0.166077,12.278839,-0.262894
0.471313,11.042694,-0.89444
0.659821,9.794739,-1.148361
0.809021,8.953354,-1.10524
0.990494,8.510803,-0.99942
1.034882,8.286438,-0.752792
0.768173,8.054932,-0.541397
0.244125,7.843765,-0.344986
-0.369629,7.635025,-0.132843
-0.961121,7.489212,0.070938
-1.449249,7.447281,0.299591
-1.72432,7.451904,0.573349
-1.789398,7.472809,0.946106
-1.715836,7.454834,1.339722
-1.506729,7.305039,1.640305
-1.34407,7.085709,1.639664
-1.295486,6.828583,1.453796
-1.247864,6.46312,1.336777
-1.213196,6.00911,1.295273
-1.222046,5.635239,1.330231
-1.183685,5.465118,1.504242
-1.05899,5.467422,1.780029
-0.8992,5.585678,2.16127
-0.793304,5.806885,2.751297
-0.711914,6.095016,3.523254
-0.378845,6.293945,4.13942
0.173294,6.343704,4.786285
0.47049,6.397842,5.600662
0.17981,6.542435,6.276108
-0.394562,7.032501,6.853165
-0.441895,8.05127,7.567947
0.224014,9.277023,7.885727
1.175064,10.527573,7.594681
2.034744,11.792786,6.931992
2.099838,12.676117,5.830399
1.207413,12.671341,4.760483
0.068939,11.905548,4.609558
-0.579514,10.633087,5.253342
-1.28682,8.957871,5.379746
-3.510437,7.424286,3.91655
-5.001831,8.618439,3.437271
-3.964294,12.381073,3.792084
-3.624451,16.443558,2.230957
-4.209274,18.266891,0.477509
-4.981384,15.528442,-0.847687
-5.782913,11.03949,-1.613937
-4.12204,7.81839,0.575958
-0.226898,5.998077,1.994507
2.831299,4.454529,1.367142
3.90213,3.299011,-0.361923
3.497772,4.302841,-0.808731
3.76181,6.933319,-0.908295
4.33818,9.662384,-1.599152
4.481506,11.581116,-1.998337
3.837189,12.256363,-1.248138
2.670746,11.567337,-0.442688
1.671799,10.200531,-0.078064
1.047668,8.864075,0.281479
0.822083,8.084656,0.726242
0.637802,7.962463,0.732132
0.143951,8.242386,0.353043
-0.547104,8.574432,-0.012177
-1.454712,9.000381,-0.139282
-1.829865,9.333481,-0.065414
-1.675095,9.42215,-0.241058
-1.283981,9.310348,-0.467728
-0.704575,9.090179,-0.649506
-0.043274,8.964142,-0.719604
0.606628,8.918747,-0.9104
1.049545,9.09993,-0.929184
1.321411,9.2939,-1.012604
1.513733,9.626541,-0.898987
1.605331,9.885193,-0.766464
1.579376,9.953155,-0.530182
1.569168,9.828049,-0.31572
1.570663,9.718765,-0.121246
1.595047,9.534454,0.115921
1.526962,9.367188,0.270416
1.404617,9.267822,0.24231
1.350159,9.289566,-0.013702
1.256042,9.3414,-0.262268
1.210648,9.357422,-0.591522
1.059082,9.293335,-0.82518
0.898285,9.233063,-0.850784
0.712036,9.032547,-0.91214
0.477127,8.790344,-0.835724
0.233139,8.660507,-0.691711
0.021133,8.82341,-0.653763
-0.271439,9.270935,-0.538269
-0.523727,9.719528,-0.481491
-0.502151,10.044983,-0.547241
0.01416,10.367462,-0.29805
0.728317,10.48233,-0.401306
1.201416,10.343979,-0.611084
1.331497,10.091568,-0.932419
0.921829,10.002304,-0.912766
0.577652,10.102676,-0.699509
0.486298,10.442276,-0.568008
0.525711,10.737076,-0.26088
0.527771,10.783066,0.100769
0.326309,10.671051,0.441376
0.198837,10.509247,0.992798
0.743866,10.489731,1.475769
2.006607,11.468857,0.504044
2.721573,13.453766,-1.83223
2.596451,14.291626,-2.21254
1.613357,13.042435,-0.940247
0.327194,11.400116,0.040161
-0.547943,9.996506,0.705139
-0.582642,9.234405,-0.295837
-0.594162,9.384094,-2.300781
-1.053757,9.866592,-3.638351
-2.271866,10.312683,-3.75827
-3.353333,10.569931,-3.24942
-4.126602,10.62912,-2.78624
-4.416199,10.658539,-2.685913
-4.458496,10.965515,-2.27916
-4.115753,11.575088,-1.4254
-3.62587,12.099579,-0.89772
-2.612167,12.600449,-0.852921
-1.825241,12.778488,-1.081299
-1.265701,12.616272,-1.339111
-0.963531,12.176666,-1.47374
-0.821442,11.533279,-1.457046
-0.700317,10.848404,-1.31752
-0.474564,10.143692,-1.183563
-0.181458,9.496353,-1.035996
0.040024,8.95549,-0.961517
0.093063,8.531265,-0.766815
0.007828,8.151337,-0.553863
-0.199554,7.910309,-0.39212
-0.572617,7.792511,-0.228806
-0.985123,7.719604,-0.010742
-1.413574,7.727951,0.310608
-1.879822,7.787384,0.685867
-2.191574,7.855041,0.771027
-2.373184,7.929535,0.630508
-2.427261,7.939865,0.346649
-2.387512,7.84552,0.122009
-2.326172,7.622299,0.06488
-2.206253,7.405807,0.258453
-1.935379,7.307648,0.67186
-1.609253,7.240936,1.293213
-1.403015,7.216019,2.095016
-1.289322,7.199204,2.898956
-1.168686,7.13707,3.595993
-0.955963,6.997543,3.929871
-0.711563,6.8517,3.868774
-0.584656,6.710297,3.643112
-0.47702,6.572571,3.304825
-0.334564,6.453491,2.940933
-0.187775,6.413498,2.654388
-0.085144,6.482727,2.514008
-0.04924,6.671616,2.563934
0.010757,7.059097,2.777084
0.137985,7.55339,2.998856
0.339828,8.198669,3.498825
0.747482,8.880035,4.083725
1.270706,9.430649,4.400909
1.627502,9.788788,4.431915
1.660019,9.937714,4.424576
1.405273,9.875916,4.561127
0.83223,9.711334,4.709091
-0.236084,9.520065,4.711792
-1.565048,9.302673,4.751663
-2.563644,9.165726,4.998642
-3.247635,9.18866,5.142639
-3.6492,9.321167,5.092422
-3.672348,9.450394,4.842026
-3.404648,9.309845,4.352539
-2.938095,8.946747,3.785995
-3.807221,8.830627,2.266464
-3.625656,10.168457,3.054398
-2.310821,13.122681,3.221909
-2.818527,16.820251,1.715469
-3.408447,18.887054,1.076004
-2.634338,19.309692,-0.093964
-2.2565,16.64293,-2.725937
-2.346954,12.10408,-2.016952
-1.503082,7.646255,1.165909
-0.293015,4.324448,3.112137
1.317917,2.779068,3.730194
2.904022,2.807236,3.261978
3.362411,3.68692,2.031921
2.625092,5.11026,0.17865
1.623611,7.339523,-0.538712
1.7892,9.842133,0.013535
2.71843,11.6828,0.080353
3.263504,12.405914,-0.499863
3.237091,12.114426,-0.835571
2.814346,11.243057,-0.420456
2.23497,10.276367,0.244247
1.687836,9.713882,0.503723
1.03418,9.428772,0.598816
0.411636,9.458756,0.872726
-0.01976,9.499786,1.391968
-0.204193,9.473541,1.708664
-0.29509,9.287338,1.621048
-0.379745,9.120605,1.300034
-0.315018,9.079712,0.893356
-0.121002,9.035828,0.543686
0.095551,9.104874,0.347656
0.246353,9.247711,0.155319
0.448364,9.437119,0.082962
0.621536,9.683472,0.19339
0.725662,9.812866,0.304275
0.811752,9.817963,0.448288
0.836288,9.751389,0.717667
0.784622,9.644134,0.953598
0.733978,9.525391,1.267426
0.766495,9.409821,1.627319
0.71875,9.210159,1.85257
0.550827,9.007416,1.804611
0.268616,8.940109,1.614395
0.056656,8.96463,1.472626
-0.063919,9.03952,1.458054
-0.139908,9.126266,1.415314
-0.216751,9.222275,1.345886
-0.190765,9.34433,1.386108
-0.222458,9.453949,1.345779
-0.377777,9.582825,1.328537
-0.56456,9.634293,1.404968
-0.805283,9.638336,1.39679
-0.94223,9.56105,1.542007
-0.877884,9.525543,1.457687
-0.505478,9.462509,1.071457
-0.037842,9.387314,0.355225
0.513077,9.411682,-0.327759
0.704147,9.626541,-0.93486
0.589203,10.203369,-0.941193
0.231232,10.741257,-0.668823
-0.024002,10.82962,-0.456329
0.075134,10.593979,-0.393646
0.417465,9.946838,-0.373184
0.762283,9.3405,-0.300018
0.956726,8.967133,-0.243027
0.889954,8.87793,-0.017685
0.633606,8.98526,0.118927
0.279938,9.185669,0.204895
-0.108139,9.374023,0.074097
-0.516052,9.441009,-0.136108
-0.820969,9.393143,-0.426697
-0.967194,9.340469,-0.56868
-0.975098,9.341858,-0.51825
-0.98465,9.400269,-0.374649
-1.007065,9.48703,-0.341278
-1.027878,9.615784,-0.332504
-0.981354,9.788834,-0.503693
-0.875641,9.872116,-0.602798
-0.720612,9.855179,-0.615265
-0.655945,9.775925,-0.431778
-0.629868,9.630264,-0.218018
-0.607864,9.426743,-0.099426
-0.64566,9.402298,-0.086761
-0.618149,9.511429,-0.095337
-0.643112,9.680756,-0.228851
