acc x,acc y,acc z
-0.600616,9.755676,-1.224564
-0.572464,9.852798,-0.965103
-0.517792,9.955597,-0.806442
-0.53125,9.976852,-0.773392
-0.542099,9.987381,-0.611755
-0.599991,9.981232,-0.461182
-0.717255,9.940872,-0.395752
-0.690796,9.942032,-0.224854
-0.707108,9.914734,-0.055923
-0.843216,9.868484,-0.03241
-0.960754,9.826767,-0.034683
-0.987442,9.802231,-0.076843
-0.957825,9.802673,-0.217041
-0.943191,9.822159,-0.289551
-1.015976,9.858612,-0.406479
-1.042618,9.928146,-0.526733
-0.977814,10.015595,-0.588882
-1.024155,10.045334,-0.509262
-1.269989,9.943131,-0.441193
-1.571777,9.759644,-0.425995
-1.595581,9.616257,-0.189514
-1.323502,9.567032,0.342529
-1.131088,9.57486,0.781067
-1.010742,9.662949,1.001495
-0.852646,9.685196,0.966522
-0.632095,9.652695,0.790298
-0.287018,9.64122,0.639023
0.150604,9.638046,0.656372
0.600479,9.657303,0.810028
0.986923,9.715805,1.126358
1.224762,9.817978,1.343628
1.208328,9.866791,1.377396
0.997055,9.839157,1.307816
0.699692,9.8172,1.12413
0.344528,9.760696,1.117233
0.022369,9.641373,1.205337
-0.262894,9.562225,1.394058
-0.499069,9.538132,1.416763
-0.569901,9.565186,1.157104
-0.599854,9.545685,0.957352
-0.635757,9.458893,1.04335
-0.711624,9.253494,1.302002
-0.792404,8.992203,1.531647
-0.782455,8.754211,1.774033
-0.700134,8.58873,1.970169
-0.70993,8.443665,2.168411
-0.630112,8.388809,2.291412
-0.440063,8.446335,2.18602
-0.201553,8.589783,2.025467
-0.149597,8.742386,1.858444
-0.1689,8.829269,1.942261
-0.220413,8.765671,1.985474
-0.169022,8.705933,1.98291
-0.110336,8.527603,2.027435
-0.088531,8.301407,2.223908
-0.099411,8.16127,2.360168
-0.143494,8.109909,2.467255
-0.118423,8.133301,2.42009
0.025696,8.188248,2.522247
0.135239,8.153885,2.577209
0.105759,8.149597,2.761581
-0.076309,8.204712,2.95636
-0.254105,8.345932,3.122452
-0.323669,8.458099,3.215042
-0.376221,8.558746,3.277756
-0.304794,8.572433,3.283829
-0.199203,8.622421,3.366821
-0.059097,8.663498,3.423996
0.107224,8.674652,3.368088
0.222488,8.758148,3.209274
0.243805,8.880951,3.239502
0.268204,9.015396,3.239639
0.106659,9.227585,3.301681
-0.247391,9.391357,3.275116
-0.531403,9.594971,3.545929
-0.697235,9.612656,3.654831
-0.847641,9.487656,3.587433
-0.94603,9.190628,3.498932
-0.996994,8.903915,3.479584
-0.833923,8.619736,3.723175
-0.688751,8.445862,3.765167
-1.376633,9.150345,4.062012
-2.637421,11.480423,4.354248
-2.206177,14.152054,3.21077
-1.326904,15.516571,0.72757
-1.024307,14.544678,-1.386597
-1.270493,12.107452,-1.343735
-0.856445,9.401443,-0.422684
0.996826,6.846085,-0.007477
2.573013,4.610764,-0.569229
2.337784,3.514709,-1.262695
0.866547,4.014175,-1.984421
-0.596924,6.56073,-2.169342
-1.30806,9.659943,-2.373047
-2.164001,11.807907,-2.891418
-2.9366,12.47757,-3.102676
-2.978073,11.91774,-2.290344
-2.421997,10.530853,-1.083679
-1.467209,9.060974,-0.053421
-0.711288,8.077316,0.54422
-0.211609,7.743713,0.807358
-0.41571,8.023895,0.874695
-1.0616,8.441727,0.65123
-1.700348,8.638275,-0.298752
-2.008041,8.718277,-1.862793
-2.277832,8.780472,-3.252228
-2.744247,8.720184,-3.753571
-3.19017,8.555542,-3.598862
-3.461792,8.467255,-2.952057
-3.403671,8.336823,-2.227814
-2.989929,8.243256,-1.235107
-2.726807,8.438049,-0.323074
-3.123291,9.015366,0.261444
-3.086319,9.961288,0.09259
-2.057373,10.791229,-0.795853
-0.459824,11.069275,-1.686813
0.450958,10.708786,-1.956375
0.560623,10.044739,-1.758011
0.37587,9.332687,-1.551132
0.024918,8.926651,-1.556396
-0.147522,8.747437,-1.813049
-0.330673,8.813446,-1.985779
-0.54213,8.964798,-2.126602
-0.947723,9.167328,-2.428192
-1.50502,9.410309,-2.723114
-1.991943,9.705551,-2.974381
-2.268097,9.880539,-2.965607
-2.471237,9.907989,-2.563751
-2.555725,9.715805,-1.912323
-2.818085,9.806946,-1.429199
-2.835449,10.20433,-1.458618
-2.532745,10.611008,-1.240967
-2.100403,10.785446,-0.850662
-1.782577,11.038956,-0.303482
-1.455475,11.446991,0.313187
-1.610626,11.798676,0.957458
-2.242203,11.857422,1.351715
-2.874664,11.795776,1.349686
-2.972412,11.710037,1.152924
-2.79631,11.602798,0.463165
-3.031403,11.691238,-0.659424
-3.809128,12.48735,-2.169739
-4.059296,13.616287,-3.407211
-3.302597,13.837372,-3.410751
-2.626144,12.978378,-2.681351
-2.143616,11.526321,-2.884872
-1.379959,10.479202,-3.604462
-0.64682,10.230118,-3.865662
-0.506729,10.866348,-3.294205
-0.80899,12.11058,-2.647308
-1.034851,13.644791,-2.623245
-1.054565,14.677856,-3.226349
-0.76001,14.90744,-4.066452
0.100189,14.509964,-4.310974
1.334824,13.891754,-3.474457
1.983597,13.179062,-2.476929
1.663101,12.368881,-1.722763
0.718048,11.649551,-1.376129
-0.730743,10.800125,-1.556854
-1.973053,10.139404,-1.96524
-2.730423,9.53331,-2.138962
-3.126953,8.780762,-2.055756
-3.015121,7.726166,-1.4702
-2.389816,6.692246,-0.530609
-1.369217,5.711807,0.48735
-0.363846,4.920792,0.859375
0.471909,4.282028,0.863785
0.918564,3.926193,0.728027
1.281021,3.802658,0.58963
1.437775,3.82225,0.711685
1.606522,3.897934,0.82135
1.967789,4.018814,0.700485
2.197083,4.109589,0.347504
2.206436,4.189789,-0.121521
2.220749,4.437759,-0.341721
2.026779,4.884995,-0.125931
1.804688,5.20961,0.262451
1.824997,5.332733,1.14624
1.73674,5.361084,2.385086
1.511002,5.285889,3.630035
1.115433,5.180252,4.624771
0.271606,5.2211,5.549912
-0.736801,5.499817,6.569397
-1.579193,6.262482,7.305573
-2.155289,7.784424,7.584076
-2.572052,10.182907,7.496338
-2.86116,13.215607,7.102646
-2.99884,16.41388,6.705109
-3.021912,18.662674,6.6772
-2.558777,19.00676,6.819794
-1.22522,16.646103,6.178635
0.613602,12.794678,4.22374
1.811798,10.813751,2.170196
2.460983,12.107178,3.995056
3.295715,14.427582,5.692322
4.053589,15.351074,3.653503
4.484772,13.745361,-0.174545
3.222199,10.981461,-1.593643
1.051117,8.085541,-0.427902
1.028976,4.485825,-0.459793
2.110809,1.356979,-1.688904
-0.007721,1.337494,-2.941605
-3.944382,4.932846,-2.948929
-5.871124,8.835114,-3.582443
-5.191132,10.483749,-5.526291
-3.809509,10.548386,-5.838989
-2.491165,10.450973,-3.579666
-1.288986,10.3284,-0.547195
-0.761887,9.755325,1.673508
-0.41539,9.088562,3.325089
-0.483032,8.255264,3.53479
-0.655441,7.476089,2.368042
-0.778473,7.027008,0.660065
-1.126984,7.180679,-0.434464
-1.942276,7.601257,-0.811844
-2.651199,7.991394,-1.043945
-2.933517,8.297287,-1.377075
-2.672562,8.564743,-1.535049
-2.263123,8.706757,-1.579056
-2.238815,8.692917,-1.860458
-2.334167,8.877457,-2.078415
-2.133545,9.275391,-2.15361
-1.465424,9.595352,-2.082626
-0.58548,9.603317,-1.713379
0.112854,9.123047,-1.149261
0.18782,8.469681,-0.684799
-0.340332,7.83049,-0.593735
-1.190659,7.39566,-1.103882
-1.936981,7.279861,-1.759979
-2.308456,7.564667,-2.304352
-2.259323,8.226074,-2.757935
-1.960907,9.482559,-3.094788
-1.611313,10.434998,-3.097778
-1.314575,10.956162,-2.209106
-1.61528,10.918732,-1.167084
-2.646423,11.437042,-0.518784
-3.525269,9.272446,0.645035
-4.700973,10.547974,0.766129
-5.211502,11.549286,0.425812
-4.814575,11.539246,-0.184677
-3.998886,11.259766,-0.774673
-3.063538,11.263062,-1.049866
-1.912643,11.705292,-0.836762
-0.651886,12.002838,-0.406387
-0.809616,12.18335,-1.05722
-3.381882,13.32991,-3.016144
-4.846878,15.279236,-4.372391
-4.453644,16.818573,-3.186478
-2.592407,15.420517,-2.775604
-1.027969,12.440842,-4.114471
-0.087082,10.424576,-4.439941
-0.385544,10.391037,-3.22464
-1.359024,11.730286,-1.933395
-2.639252,13.681702,-1.4216
-2.963501,14.776169,-2.882706
-1.893799,14.897888,-4.163895
-0.106949,14.939789,-4.401062
1.51741,14.939133,-3.671982
2.369049,14.113541,-2.964676
2.296341,12.893158,-1.850662
0.812775,11.408112,-1.758484
-0.716507,10.124832,-1.790436
-3.066681,10.841629,-2.180527
-2.651382,8.794083,-1.400665
-2.135193,7.706741,-0.841919
-1.888763,6.674774,-0.674896
-1.481354,5.408554,-0.210403
-1.046112,4.565399,0.283432
-0.566162,3.873062,0.51207
-0.105896,3.354233,0.394211
0.447403,3.292206,0.437698
1.236496,3.475937,0.72081
1.773453,3.78717,0.529678
2.08461,3.970093,0.082962
2.308868,3.96196,0.035019
2.186996,3.86319,0.046036
1.932663,3.823929,-0.288712
1.731598,3.873276,-0.928223
1.539963,3.999741,-1.367737
1.475739,4.036041,-1.145981
1.49089,4.236832,-0.224899
1.327011,4.391953,1.378921
0.93634,4.358658,3.252563
0.235519,4.529098,5.606567
-0.340134,5.382111,7.849289
-0.490524,7.219437,9.786911
-0.863541,10.468262,10.791916
-2.234726,15.189728,10.645676
-3.315567,19.309692,9.43486
-5.194855,19.309692,8.258225
-5.966843,19.144257,7.159119
-3.004608,16.323563,3.18895
1.551575,12.29805,-0.865326
2.792862,11.358017,-2.434097
2.816528,12.796204,4.102173
4.628418,12.60434,2.584106
5.417877,12.499832,0.043991
3.412781,12.426544,-2.019165
-0.315872,11.068253,-0.619263
-4.040665,6.310959,-1.12738
-1.033432,1.854797,-0.681534
0.192093,-0.625671,-2.574554
-4.252411,2.260819,-4.331406
-5.475906,7.859482,-4.698898
-4.107071,10.362717,-5.649933
-1.133225,10.50177,-5.233139
-0.074951,10.115921,-3.132629
0.260315,10.194153,0.972458
-0.539795,10.278992,2.105682
-2.276016,10.215591,0.698074
-2.687485,9.857651,-1.595093
-1.607742,9.205933,-3.572815
-1.023117,8.280167,-4.248795
-1.089996,7.550491,-3.542389
-1.625,7.554016,-2.162216
-1.82988,8.302048,-0.514999
-1.668899,9.152649,0.048706
-1.257599,9.643066,-0.531418
-1.146606,9.841324,-1.420578
-0.715317,9.922714,-2.049103
0.046707,9.792877,-2.002502
0.436813,9.60318,-1.651016
0.40625,9.401764,-1.008331
-0.05162,9.089554,-0.455765
-0.711716,8.740265,-0.436447
-1.329742,8.407516,-0.781708
-2.151413,7.96875,-1.095734
-3.155319,7.616119,-1.058884
-4.136764,7.638413,-0.608047
-4.660461,7.901398,-0.297974
-4.621048,8.057205,-0.31282
-4.41774,8.015793,-0.491089
-4.119736,8.04512,-0.691818
-3.525208,8.512543,-0.748245
-3.042069,9.945511,-0.205658
-2.805878,11.64563,0.48262
-1.682419,11.109024,-0.007141
-2.249222,11.4729,-0.714569
-1.90741,11.493546,-0.942673
-0.815552,11.66243,-0.158981
0.530777,11.767212,-0.158951
1.348099,10.733826,-0.417404
0.744614,9.578903,-0.175995
-1.447968,11.019104,-0.458069
-2.796295,14.868835,-0.977325
-1.305145,16.59343,-2.025406
1.033905,14.16127,-4.04715
1.413467,11.582718,-6.696976
-0.130737,11.719238,-7.728348
-2.194428,14.22403,-6.093292
-3.468994,16.802048,-3.95636
-2.1987,17.549805,-3.424438
-0.429504,16.66777,-3.659134
-0.437149,15.229797,-3.640732
-1.4655,13.815765,-3.830032
-2.011978,12.459732,-4.193405
-1.724457,11.315323,-3.640701
-0.994873,10.333588,-2.228546
-0.061417,9.810013,-0.725021
0.83606,9.737778,-0.520432
2.188446,8.974091,-1.240402
2.109253,9.123901,-2.006424
-0.06929,10.45874,-2.88353
-0.094894,9.457703,-2.927628
-0.439377,8.472778,-2.265488
-0.628861,6.929871,-1.464233
-0.626938,5.211136,-0.72229
-0.418594,3.841476,0.240448
0.062332,2.917923,1.56546
0.698929,2.560303,2.770279
1.259674,2.767349,3.166321
1.746201,3.42482,2.538849
2.111984,4.422012,1.527862
2.410995,5.469162,0.674271
2.582092,6.331558,0.062119
2.504028,6.847473,-0.269592
2.2267,6.897842,-0.208496
1.977295,6.559876,0.096619
1.867752,5.893036,0.593506
1.664062,5.009186,1.166031
1.321579,4.212799,1.87262
0.835022,3.734985,2.827286
0.153214,3.69162,3.67099
-0.922256,4.238815,4.309937
-2.399933,5.537216,4.714035
-3.522003,7.698669,4.478073
-3.842178,10.669403,3.911499
-3.907822,14.214264,3.683411
-4.187881,17.673447,4.277161
-4.669769,19.216537,6.035263
-5.192108,18.049301,7.973053
-4.183487,14.761963,8.375885
-0.906311,11.017761,6.58815
2.889648,7.815201,3.914749
3.041336,7.009338,2.521362
1.446106,8.935638,4.684891
2.614654,11.383545,3.022186
4.900238,13.636002,-3.748673
4.969559,17.444565,-7.335831
3.897888,19.309692,-4.761764
0.683533,18.494324,2.807617
-2.38681,12.8806,4.817993
-4.496155,5.747467,-1.578674
-5.52533,2.766571,-6.858673
-4.381897,3.018906,-7.671234
-2.741959,3.732788,-6.73674
-2.920303,4.38678,-5.767151
-3.351654,5.935409,-3.74791
-4.230652,8.05069,-1.483032
-4.312332,10.610016,1.101669
-3.72467,12.592224,2.227264
-2.423569,13.011841,0.740601
-0.787766,12.2612,-0.918762
-7.6e-05,10.864883,-1.278671
-0.559586,9.072723,-1.356201
-1.662476,7.73056,-1.280991
-2.27948,7.239151,-1.074188
-2.093048,7.279358,-0.654572
-1.762344,7.461655,-0.258225
-2.067276,7.485245,0.053925
-2.788345,7.545013,0.225906
-3.245621,7.845718,0.235672
-3.253708,8.673676,0.243958
-3.019302,9.547394,-0.011993
-2.493027,10.15683,-0.234177
-2.050186,10.13736,-0.23172
-1.724167,9.828018,0.126663
-1.547378,9.629471,0.499573
-1.476715,9.534332,0.558105
-1.246048,9.500763,0.382278
-0.762772,9.352463,0.223022
-0.349426,8.910446,0.234344
0.015152,8.509521,0.594955
-0.096893,8.278305,0.708847
-0.578049,8.247711,0.082169
-1.451324,8.512985,-1.012619
-2.565903,8.808426,-2.100525
-3.589294,9.117752,-2.443527
-3.813477,9.516922,-2.163254
-2.996338,9.723358,-1.875382
-2.099396,9.809113,-1.690659
-1.49913,10.037247,-1.937637
-1.415604,10.351166,-1.959427
-1.999176,10.265778,-1.804245
-2.418778,9.879303,-1.409744
-2.405716,9.519897,-0.762512
-2.085586,9.368546,-0.206192
-2.260239,10.036758,-0.788559
-3.72641,12.328293,-2.25148
-3.083084,14.25061,-2.410339
-1.71608,13.479279,-0.656326
-2.612961,11.054047,-0.014908
-3.733704,9.833191,-0.880402
-4.067886,10.301605,-1.712433
-4.516846,11.241653,-2.873291
-4.542877,12.438736,-4.327271
-3.265274,12.966217,-4.437042
-1.822723,12.457336,-3.5233
-0.908829,11.421066,-3.1073
-0.467239,10.425919,-3.029022
-0.296616,9.8199,-2.748047
-0.167053,9.315369,-1.898895
-0.203583,9.096115,-1.228744
-0.025146,9.141785,-0.846741
0.520538,9.540527,-0.847137
0.808014,10.08992,-1.391479
0.827972,10.753998,-2.000397
0.653854,11.29129,-2.37381
0.338654,11.35585,-3.019867
-0.004303,10.907928,-3.401382
-0.615967,10.0905,-3.657257
-1.432068,9.14119,-3.32692
-2.118469,8.318436,-2.452988
-2.357986,7.473618,-1.306641
-2.205811,6.864075,-0.322159
-1.608032,6.484741,0.422409
-1.004654,6.482468,0.948364
-0.360062,6.54718,1.061737
0.345825,6.621445,0.908859
0.998138,6.699341,0.39859
1.437058,6.844101,-0.12709
1.709534,6.933456,-0.882599
1.980865,6.97258,-1.240006
1.915176,6.966431,-1.330795
1.583038,6.990631,-1.300385
1.106461,7.129166,-1.281464
0.800339,7.56427,-1.172028
0.552444,8.211533,-0.869736
0.124344,8.986008,-0.499435
-0.310379,9.948257,0.006531
-0.453079,11.004807,0.680084
-0.087158,12.007767,1.061584
0.580948,12.590836,0.98317
0.472595,12.681534,0.946777
-0.522965,12.559677,1.195297
-1.822494,12.407623,1.425064
-2.65181,11.9646,1.30513
-2.755035,11.075378,0.37941
-2.041122,10.011337,-0.550446
-0.696625,8.653091,-1.073395
0.536972,7.054352,-1.171661
0.723145,5.832626,-1.028442
0.1521,5.750412,-1.471619
-0.049347,6.470032,-3.496445
-0.181458,7.857895,-5.329971
-0.682678,9.81842,-5.806946
-1.459473,11.679825,-4.515747
-2.247391,12.628601,-2.43338
-2.71019,12.442886,-0.574722
-2.622406,11.145584,0.869659
-2.4319,9.52771,1.893372
-2.364792,8.368378,2.106369
-2.461441,7.83107,1.348541
-2.385025,7.858872,-0.375778
-1.936356,8.43869,-2.608353
-1.2556,9.486038,-4.544449
-0.680771,10.623245,-5.380829
-0.513184,11.217255,-4.96199
-0.697617,11.15947,-3.634552
-0.913773,10.496963,-2.078339
-1.014374,9.677093,-0.880386
-1.00531,9.129532,-0.584625
-0.852341,8.859451,-1.045486
-0.63031,8.830261,-1.779739
-0.367203,8.934525,-2.560486
-0.229614,9.129318,-2.953522
-0.250076,9.296768,-3.160965
-0.240967,9.39148,-3.30957
-0.249771,9.380035,-3.422104
-0.38504,9.399979,-3.449707
-0.597107,9.470154,-3.358261
-0.967651,9.553894,-3.188507
-1.445541,9.614075,-2.850082
