frame,acc x,acc y,acc z
663,1.389111,10.226733,-2.002236
664,1.135239,10.080637,-2.054927
665,0.878972,9.80521,-1.650168
666,0.790356,9.443562,-1.094524
667,0.682581,9.103469,-1.092129
668,0.725691,8.885522,-1.353186
669,0.747246,8.969348,-1.551973
670,0.730481,9.275911,-1.7795
671,0.804727,9.692644,-1.968706
672,0.754431,9.989626,-1.805845
673,0.833467,10.011182,-1.84177
674,1.058599,9.865085,-1.738784
675,1.398691,9.81,-1.722019
676,1.726809,9.723779,-1.8274
677,1.925596,9.855505,-1.887275
678,1.767524,10.030342,-1.956731
679,1.547183,10.226733,-1.769919
680,1.233435,10.346484,-1.472937
681,0.943638,10.329719,-1.140029
682,0.704136,10.238708,-0.991538
683,0.531694,10.102192,-0.965193
684,0.433499,9.951306,-1.060994
685,0.495769,9.802815,-1.17356
686,0.711321,9.82437,-1.295706
687,0.917292,9.958491,-1.305286
688,1.060994,10.083032,-1.219065
689,1.252595,10.174043,-1.209485
690,1.293311,10.073452,-1.104104
691,1.350791,9.968071,-1.087339
692,1.508862,9.944121,-1.147214
693,1.662144,9.8579,-1.228645
694,1.825005,9.841135,-1.322051
695,2.074087,9.718989,-1.437012
696,2.155518,9.673484,-1.432222
697,2.256108,9.546548,-1.566343
698,2.203418,9.433982,-1.769919
699,2.157913,9.433982,-1.671724
700,1.999841,9.419612,-1.733994
701,1.81782,9.489067,-1.597478
702,1.722019,9.623188,-1.439407
703,1.712439,9.673484,-1.391506
704,1.750759,9.709409,-1.448987
705,1.810635,9.730964,-1.439407
706,1.83698,9.802815,-1.441802
707,1.745969,9.75731,-1.362766
708,1.475332,9.721384,-1.238225
709,1.247805,9.714199,-0.950823
710,1.111289,9.84353,-0.795146
711,0.960403,9.877061,-0.608335
712,0.866997,9.944121,-0.522114
713,0.826282,9.956096,-0.464634
714,0.850232,9.989626,-0.404758
715,0.938848,9.987231,-0.445474
716,1.094524,9.970466,-0.469424
717,1.252595,9.898616,-0.421523
718,1.463357,9.75731,-0.505349
719,1.537603,9.850715,-0.641865
720,1.463357,9.972861,-0.790356
721,1.18793,10.231523,-0.826282
722,0.881367,10.530901,-0.924478
723,0.744851,10.892549,-0.934058
724,0.850232,11.02667,-0.977168
725,1.360371,10.909314,-1.029858
726,1.796265,10.557246,-1.24541
727,2.038162,10.020762,-1.602268
728,2.098037,9.680669,-1.84177
729,2.102827,9.462722,-2.184258
730,2.071692,9.383687,-2.41418
731,2.110012,9.570498,-2.524351
732,2.121987,9.881851,-2.387834
733,2.002236,10.4351,-2.313589
734,2.014211,10.880574,-2.023792
735,1.999841,11.081755,-1.623823
736,2.064507,11.141631,-1.262175
737,2.215393,11.191926,-0.888552
738,2.610571,11.213481,-0.725691
739,3.175796,11.450588,-0.823887
740,3.855981,11.745176,-1.214275
741,4.433181,12.044553,-1.571133
742,4.31822,11.891272,-1.844165
743,3.556604,11.426638,-1.760339
744,2.375859,10.813513,-1.099314
745,1.257385,10.595566,-0.340093
746,0.510139,10.837463,0.414338
747,0.191602,11.536809,1.113684
748,0.124541,12.504397,1.631008
749,0.021555,13.129497,2.41897
750,-0.016765,13.335469,3.307522
751,0.237107,13.256433,4.009263
752,0.548459,12.87323,4.30385
753,0.859812,12.576248,3.896697
754,1.163979,12.528347,2.816543
755,1.604663,12.633728,1.614243
756,1.920806,12.846885,0.833467
757,2.287244,13.306729,0.059875
758,2.325564,13.54623,-0.713716
759,2.088457,13.670771,-1.712439
760,2.086062,13.812078,-3.273992
761,1.722019,13.491145,-4.105063
762,0.938848,12.339141,-4.507427
763,0.399968,10.892549,-4.581672
764,0.246687,9.788445,-4.155359
765,0.500559,9.393267,-3.424878
766,0.974773,9.896221,-2.313589
767,1.563948,10.885364,-1.468147
768,2.162703,11.426638,-1.020278
769,2.275269,11.527229,-0.775986
770,2.181863,10.969189,-0.692161
771,1.678909,10.329719,-0.641865
772,1.034648,9.685459,-0.725691
773,0.337698,8.986113,-0.984353
774,-0.100591,8.310718,-0.984353
775,-0.402363,7.719148,-0.730481
776,-0.65863,7.237749,-0.55804
777,-0.996328,6.959927,-0.426313
778,-1.381926,6.974297,-0.325723
779,-1.542393,7.180269,0.071851
780,-1.801055,7.434141,0.505349
781,-2.145938,7.671248,1.116079
782,-2.519561,7.676038,1.89446
783,-2.830913,7.685618,2.589016
784,-3.09197,7.477251,2.924319
785,-3.187771,7.417375,3.103945
786,-2.950664,7.115603,2.943479
787,-2.292034,6.813831,2.600991
788,-1.384321,6.258186,2.41418
789,-0.450264,5.738467,2.220183
790,0.443079,5.309758,1.717229
791,1.185535,4.8571,1.247805
792,1.85614,4.828359,1.293311
793,2.363884,4.873865,1.571133
794,2.730322,5.436694,2.46208
795,3.391348,6.392307,4.258345
796,4.126619,7.671248,6.478528
797,4.548142,9.546548,8.301138
798,4.763694,12.372671,10.157278
799,4.193679,15.165264,11.999048
800,2.787803,16.836987,12.875625
801,1.346001,16.635806,11.66614
802,0.244292,16.319663,10.47342
803,-1.072969,17.107625,8.01134
804,-1.425037,17.883611,4.95769
805,0.941243,19.619401,3.056045
806,4.739744,19.619401,0.182021
807,3.755391,11.987073,-4.25116
808,-3.147056,4.761299,-2.217788
809,-8.710686,-1.369951,-4.89542
810,-10.193203,-5.266648,-6.773115
811,-5.879773,-3.755391,-3.424878
812,2.708767,2.047742,1.389111
813,8.270002,10.763218,2.857258
814,7.767048,15.308965,-1.683699
815,5.348079,16.698076,-5.355264
816,3.360212,16.266973,-4.25595
817,1.777104,12.997771,-2.945874
818,0.673,9.132209,-1.223855
819,-0.062271,6.272556,0.617915
820,-0.536484,4.782854,1.080154
821,-0.878972,4.828359,0.878972
822,-0.850232,6.502478,0.064666
823,-0.395178,8.749006,-0.764011
824,0.318538,10.40636,-1.072969
825,0.924478,11.261382,-1.049019
826,1.611848,11.630215,-1.293311
827,2.093247,11.261382,-1.511257
828,2.337539,10.3872,-1.575923
829,2.610571,9.364526,-1.451382
830,2.823728,8.56938,-1.317261
831,2.766248,8.107141,-1.116079
832,2.727927,8.298743,-1.099314
833,2.646497,8.794512,-1.348396
834,2.459685,9.560918,-1.341211
835,2.026187,10.365645,-1.243015
836,1.693279,10.772798,-0.967588
837,1.518442,10.815908,-0.783171
838,1.300496,10.545271,-0.917292
839,1.23104,10.303374,-1.369951
840,1.266965,10.013577,-2.038162
841,1.317261,9.946516,-2.521956
842,1.441802,10.241104,-2.313589
843,1.769919,11.09373,-1.415457
844,2.045347,11.745176,-0.57241
845,2.39981,11.378738,0.239502
846,2.665657,9.917776,0.502954
847,2.818938,9.239985,0.481399
848,3.245251,10.973979,0.397573
849,3.518284,13.088782,0.474214
850,3.535049,13.675562,0.443079
851,3.197351,12.573853,0.182021
852,2.871628,11.448193,0.198787
853,2.723137,11.620635,0.107776
854,2.351909,12.497212,-0.110171
855,1.484912,13.107942,-0.57241
856,0.505349,12.810959,-0.747246
857,0.433499,12.444521,-0.459844
858,1.741179,13.986914,0.186812
859,4.756509,17.280066,0.514929
860,6.77551,18.918259,0.929268
861,6.028264,17.184265,0.60594
862,4.931345,14.940132,0.095801
863,3.66917,13.797708,0.742456
864,2.323169,13.127102,1.041833
865,1.228645,12.87802,0.656235
866,0.65863,13.452825,-0.256267
867,0.483794,14.06595,-2.823728
868,0.438289,14.192886,-5.733677
869,0.193997,13.675562,-6.425837
870,0.071851,13.131892,-6.124065
871,-0.320933,13.091177,-5.221143
872,-1.034648,13.311519,-4.392466
873,-2.004631,13.203743,-3.812871
874,-2.579436,12.842095,-3.178191
875,-2.390229,12.530742,-2.215393
876,-1.393901,12.044553,-1.360371
877,0.146096,11.60387,-1.566343
878,1.88488,10.317744,-2.210603
879,2.660867,9.230405,-2.246528
880,2.969824,8.327483,-2.612966
881,2.639312,7.664062,-2.713557
882,2.150728,7.165898,-2.574646
883,1.520837,7.098838,-2.416575
884,0.943638,7.070098,-2.270479
885,0.170046,6.631809,-2.021396
886,-0.55804,6.215076,-1.504072
887,-0.981958,5.918093,-1.338816
888,-1.137634,5.726492,-1.21667
889,-1.147214,5.716912,-1.23583
890,-1.051414,5.726492,-1.135239
891,-0.981958,5.882168,-1.065784
892,-1.015488,5.985154,-0.871787
893,-1.106499,6.13125,-0.744851
894,-1.252595,6.203101,-0.507744
895,-1.587898,6.047424,-0.311353
896,-1.956731,5.769602,-0.131726
897,-2.081272,5.446274,0.62989
898,-2.141147,5.235513,1.609453
899,-2.148333,5.075046,2.052532
900,-1.724414,5.252278,2.344724
901,-0.677791,5.714517,2.830913
902,0.603545,6.521638,3.329077
903,2.4525,8.454419,4.387676
904,3.836821,10.947634,6.231841
905,5.345684,14.444363,8.200547
906,6.425837,18.039287,9.77647
907,6.763535,19.619401,10.727292
908,5.204377,19.619401,10.226733
909,2.933899,16.877703,8.907078
910,0.352068,13.318704,7.194639
911,-1.810635,9.769285,5.45825
912,-4.691843,8.511899,5.027146
913,-6.416257,7.022197,0.469424
914,-6.353987,9.182505,-1.84177
915,-4.696633,14.168936,-3.266807
916,-1.199905,18.151853,-4.493057
917,1.599873,17.771045,-2.574646
918,3.587739,15.129338,-2.196233
919,3.410508,8.507109,-2.816543
920,1.961521,4.258345,-1.626218
921,0.775986,2.256108,-3.206931
922,0.383203,1.614243,-4.325405
923,1.755549,3.657195,-4.809199
924,2.936294,6.720425,-4.694238
925,3.300337,9.599238,-4.018843
926,2.847678,11.615845,-2.397415
927,1.760339,12.221785,-1.003513
928,0.948428,11.900852,-0.184417
929,0.229922,10.791958,-0.196392
930,-0.026345,9.654324,-1.427432
931,-0.0479,9.036409,-2.797383
932,0.474214,8.720266,-2.775828
933,1.472937,8.634045,-2.40939
934,2.411785,8.552615,-1.81782
935,2.919529,8.54064,-1.437012
936,2.814148,8.732241,-1.041833
937,2.356699,9.005273,-0.936453
938,1.844165,9.17053,-1.130449
939,1.518442,9.20406,-1.619033
940,1.664539,9.364526,-2.212998
941,1.942361,9.726174,-2.464475
942,2.081272,10.322534,-1.930386
943,1.918411,10.756033,-0.64905
944,1.626218,10.906919,0.165256
945,1.199905,10.827883,0.416733
946,0.965193,10.720107,0.155676
947,1.034648,10.772798,-0.342488
948,1.353186,10.727292,-0.962798
949,1.671724,10.475815,-1.247805
950,2.105222,10.071057,-1.24541
951,2.454895,10.039922,-0.960403
952,2.519561,10.447075,-0.677791
953,2.335144,11.0123,-0.172441
954,1.973496,11.407478,0.471819
955,1.781895,11.412268,1.008303
956,1.868115,11.072175,1.219065
957,2.174678,10.269844,1.21667
958,2.677632,9.7621,0.907712
959,3.163821,10.212363,0.306563
960,3.66917,11.381133,0.071851
961,3.982917,12.102034,0.122146
962,3.851191,12.391831,0.124541
963,3.321892,12.513977,-0.220342
964,2.198628,12.604988,-0.548459
965,0.737666,12.372671,-0.450264
966,-0.414338,11.833792,0.299377
967,-0.325723,11.836187,1.302891
968,1.429827,13.828843,2.014211
969,4.665498,17.112415,2.574646
970,6.315667,17.684824,2.766248
971,5.57321,15.208374,1.300496
972,4.425996,12.909155,-0.210762
973,3.350632,12.439731,-0.548459
974,2.658472,12.889995,-1.027463
975,1.796265,13.936619,-2.514771
976,1.360371,15.177239,-4.437971
977,1.520837,16.52803,-5.939648
978,1.537603,17.229771,-6.368357
979,1.020278,17.016614,-5.803132
980,0.229922,15.737673,-5.015171
981,-0.519719,13.833633,-4.232
982,-1.175955,12.221785,-3.441643
983,-1.266965,11.721226,-2.203418
984,-0.787961,11.203901,-2.208208
985,0.759221,11.230247,-2.038162
986,2.311194,10.765613,-1.638193
987,3.05365,9.740544,-1.825005
988,3.262017,8.547825,-2.778223
989,2.871628,7.426956,-2.735112
990,1.935176,6.603069,-2.806963
991,0.864602,5.819897,-2.344724
992,-0.184417,5.266648,-1.733994
993,-1.084944,4.778064,-1.092129
994,-1.686094,4.471501,-0.632285
995,-2.131567,4.399651,-0.447869
996,-2.100432,4.442761,-0.56283
997,-1.887275,4.773274,-0.57241
998,-1.712439,5.264253,-0.713716
999,-1.547183,5.839058,-1.005908
1000,-1.391506,6.203101,-1.204695
1001,-1.26936,6.521638,-1.393901
1002,-1.372346,6.696475,-1.23583
1003,-1.568738,6.670129,-1.130449
1004,-1.674119,6.500083,-0.771196
1005,-1.906436,6.028264,-0.299377
1006,-2.167493,5.51094,0.383203
1007,-2.42376,5.283413,1.666934
1008,-2.725532,4.964875,2.761458
1009,-2.4525,5.096602,2.603386
1010,-1.499282,5.829478,2.727927
1011,-0.261057,7.465276,3.259622
1012,1.384321,10.312954,4.536167
1013,3.192561,14.703025,6.526428
1014,4.552932,18.42249,7.812554
1015,5.822292,19.619401,9.733359
1016,6.442603,19.619401,10.423125
1017,5.233118,19.619401,10.152488
1018,2.596201,17.663269,8.59333
1019,-0.706531,12.628938,6.394702
1020,-4.291875,9.735754,5.170847
1021,-5.503755,6.993457,0.814307
1022,-4.873865,7.927515,-2.062112
1023,-3.273992,10.231523,-3.867957
1024,-1.130449,11.941567,-4.27032
1025,1.288521,13.984519,-3.434458
1026,2.878813,15.684983,0.340093
1027,2.536326,15.052698,-0.900527
1028,1.645378,10.530901,0.069456
1029,-0.215552,5.824688,-0.344883
1030,-0.895737,3.405718,-1.2023
1031,-0.704136,2.632126,-2.780618
1032,-0.138911,2.845283,-5.269043
1033,1.087339,4.617598,-5.903723
1034,2.349514,7.065308,-4.998406
1035,3.108735,9.616003,-3.72665
1036,3.046465,11.393108,-2.397415
1037,2.790198,12.116404,-1.80824
1038,2.373464,11.615845,-1.79387
1039,1.947151,10.772798,-1.729204
1040,1.556763,9.994417,-1.88009
1041,1.360371,9.503438,-1.959126
1042,1.590293,9.144185,-1.992656
1043,2.026187,8.849597,-1.7795
1044,2.39502,8.904683,-1.132844
1045,2.383044,8.873547,-0.608335
1046,2.057322,9.026829,-0.704136
1047,1.489702,9.22801,-1.422642
1048,1.2502,9.544153,-2.299219
1049,1.252595,9.817185,-2.454895
1050,1.144819,9.817185,-1.678909
1051,1.223855,9.82437,-0.493374
1052,1.300496,9.7621,0.02874
1053,1.508862,10.001602,-0.107776
1054,1.626218,10.437495,-0.546064
1055,1.599873,10.827883,-0.890947
1056,1.686094,11.170371,-1.008303
1057,1.86093,10.98356,-1.017883
1058,2.076482,10.578801,-0.826282
1059,2.191443,10.147698,-0.708926
1060,2.318379,9.726174,-0.711321
1061,2.217788,9.481882,-0.730481
1062,1.729204,9.582473,-0.62989
1063,1.108894,10.090217,-0.720901
1064,0.584385,10.638677,-0.993933
1065,0.335303,10.758428,-1.154399
1066,0.481399,10.253079,-0.682581
1067,1.171165,9.477092,0.308958
1068,2.361489,9.508228,1.18314
1069,3.594924,10.540481,1.537603
1070,4.430786,11.706855,1.286125
1071,4.627178,12.250525,0.603545
1072,4.061953,12.051738,0.311353
1073,3.01533,11.800261,-0.021555
1074,2.234553,12.066108,-0.862207
1075,1.159189,12.449312,-1.204695
1076,0.165256,12.142749,-0.277822
1077,0.459844,12.046948,0.756826
1078,2.069297,13.644426,1.619033
1079,4.684658,16.381934,2.133962
1080,6.272556,17.383052,2.651287
1081,5.57321,15.548467,1.528022
1082,4.392466,13.977334,0.395178
1083,3.223696,13.780942,-0.215552
1084,2.325564,13.867163,-1.128054
1085,1.171165,13.500725,-2.344724
1086,-0.229922,12.952266,-4.452341
1087,-1.18314,12.971426,-5.671406
1088,-1.27415,13.438455,-5.431904
1089,-0.902922,14.140195,-4.232
1090,-0.898132,14.573694,-3.159031
1091,-0.953218,14.185701,-2.696792
1092,-0.692161,13.342654,-2.627336
1093,-0.270637,12.545112,-2.335144
1094,0.110171,11.994258,-1.717229
1095,0.768801,11.393108,-1.961521
1096,1.939966,11.038645,-2.110012
1097,3.11113,10.212363,-2.148333
1098,3.738625,9.302256,-2.205813
1099,3.808081,8.5598,-2.380649
1100,3.075205,8.0305,-2.186653
1101,1.89925,7.690408,-1.767524
1102,1.106499,7.307205,-1.731599
1103,0.263452,7.089258,-1.125659
1104,-0.160466,6.828201,-0.828677
1105,-0.524509,6.567144,-0.536484
1106,-0.761616,6.399492,-0.347278
1107,-0.857417,6.368357,-0.443079
1108,-0.890947,6.425837,-0.435894
1109,-0.996328,6.512058,-0.289797
1110,-1.008303,6.660549,-0.040715
1111,-0.977168,6.825806,0.114961
1112,-0.965193,6.69887,0.253872
1113,-1.039438,6.468948,0.225132
1114,-1.25499,6.368357,0.65863
1115,-1.326841,6.006709,0.866997
1116,-1.130449,5.640271,0.65863
1117,-0.814307,5.259463,0.696951
1118,-0.409548,5.187612,1.243015
1119,0.170046,5.470225,1.346001
1120,0.857417,6.057004,1.149609
1121,1.266965,6.682104,1.171165
1122,1.602268,7.838899,1.760339
1123,1.906436,9.455537,2.998564
1124,2.222578,11.354788,4.653523
1125,2.246528,13.206138,6.054609
1126,1.923201,14.317427,6.897656
1127,1.369951,14.74374,7.276069
1128,0.555645,13.962964,6.665339
1129,-0.217947,12.660073,5.513335
1130,-0.917292,11.120076,4.334985
1131,-1.003513,9.630374,3.151846
1132,-0.64905,7.865244,2.313589
1133,-1.271755,6.947952,0.766406
1134,-2.272874,7.098838,0.510139
1135,-1.312471,8.600515,-3.307522
1136,-0.797542,12.422966,-2.948269
1137,-0.775986,15.172449,-1.26457
1138,-0.110171,15.826289,-1.276545
1139,0.627495,15.555652,-1.037043
1140,0.074246,15.37363,0.787961
1141,-1.379531,16.635806,1.712439
1142,-2.019001,18.891914,2.136357
1143,-0.150886,19.619401,4.282295
1144,1.147214,17.886006,5.125342
1145,0.261057,13.067227,3.410508
1146,-0.778381,8.346643,0.00958
1147,-0.898132,4.392466,-3.64043
1148,-0.258662,1.944756,-6.538403
1149,0.890947,1.084944,-8.02092
1150,2.054927,2.004631,-8.466394
1151,2.754272,4.631968,-7.556287
1152,3.757786,7.680828,-5.920488
1153,5.343289,10.447075,-3.065625
1154,6.229446,12.339141,-1.26936
1155,6.109695,13.867163,0.457449
1156,5.087021,13.979729,1.918411
1157,3.690725,12.846885,2.502795
1158,2.454895,11.239827,1.592688
1159,1.310076,9.764495,0.01916
1160,0.213157,8.995693,-1.652563
1161,-0.488584,9.000483,-3.11592
1162,-0.874182,9.419612,-3.911067
1163,-1.049019,9.908196,-3.946992
1164,-0.938848,10.150093,-3.266807
1165,-0.766406,10.193203,-2.256108
1166,-0.677791,9.872271,-1.499282
1167,-0.134121,9.465117,-1.060994
1168,0.62989,9.168135,-1.185535
1169,1.422642,8.990903,-1.556763
1170,2.201023,8.971743,-1.8753
1171,2.895579,9.15137,-1.760339
1172,3.479963,9.637559,-1.566343
1173,3.812871,10.066267,-1.542393
1174,3.839216,10.451865,-1.722019
1175,3.628455,10.648257,-1.78908
1176,3.192561,10.617122,-1.738784
1177,2.684817,10.423125,-1.408271
1178,2.112407,10.332114,-1.077759
1179,1.609453,10.241104,-0.857417
1180,1.041833,10.281819,-0.948428
1181,0.59636,10.336904,-1.238225
1182,0.282612,10.317744,-1.554368
1183,0.138911,10.140513,-1.805845
1184,0.222737,9.917776,-1.87051
1185,0.378413,9.678274,-1.848955
1186,0.701741,9.481882,-1.791475
1187,1.056204,9.354946,-1.398691
1188,1.523232,9.287886,-1.135239
1189,1.963916,9.25196,-0.871787
1190,2.239343,9.25675,-0.778381
1191,2.289639,9.419612,-0.878972
1192,2.141147,9.735754,-1.087339
1193,1.757944,10.118958,-1.396296
1194,1.341211,10.653047,-1.499282
1195,0.996328,11.03146,-1.372346
1196,0.962798,11.04583,-1.199905
1197,1.214275,10.693762,-1.015488
1198,1.733994,10.150093,-1.029858
1199,2.323169,9.84832,-1.219065
1200,2.881208,10.116563,-1.219065
1201,3.190166,10.899734,-1.551973
1202,3.247646,11.60866,-1.535208
1203,2.785408,11.737991,-1.496887
1204,2.153123,11.309282,-1.815425
1205,1.530417,10.681787,-2.119592
1206,0.967588,10.066267,-2.337539
1207,0.699346,9.515413,-2.406995
1208,0.608335,9.117839,-2.41897
1209,0.414338,8.962163,-2.375859
1210,0.136516,8.935818,-2.526746
1211,-0.153281,8.952583,-2.840493
1212,-0.368833,9.129814,-3.01054
1213,-0.306563,9.259146,-3.079995
1214,-0.165256,9.505833,-2.967429
1215,0.031135,10.035132,-2.816543
1216,0.167651,10.657837,-2.49561
1217,0.296982,10.976375,-1.87051
1218,0.510139,10.938054,-1.437012
1219,0.778381,10.547666,-1.046624
1220,1.017883,10.039922,-1.060994
1221,1.238225,9.601633,-1.020278
