frame,acc x,acc y,acc z
962,0.917292,9.944121,-1.712439
963,1.015488,9.896221,-1.638193
964,1.049019,9.910591,-1.683699
965,1.135239,10.011182,-1.659749
966,1.228645,10.011182,-1.731599
967,1.19751,9.941726,-1.954336
968,1.175955,9.850715,-2.203418
969,1.116079,9.79084,-2.153123
970,1.159189,9.687854,-2.124382
971,1.257385,9.683064,-2.102827
972,1.365161,9.673484,-2.198628
973,1.365161,9.673484,-2.198628
974,1.334026,9.721384,-2.236948
975,1.075364,9.79563,-1.906436
976,0.847837,9.77168,-1.762734
977,0.747246,9.733359,-1.664539
978,0.55804,9.79084,-1.417852
979,0.531694,9.922566,-1.355581
980,0.64905,10.018367,-1.441802
981,0.783171,10.087822,-1.640588
982,0.852627,10.162068,-1.978286
983,0.804727,10.186018,-2.229763
984,0.764011,10.159673,-2.488425
985,0.833467,10.296189,-2.562671
986,0.955613,10.576406,-2.39981
987,1.305286,10.600356,-2.313589
988,1.669329,10.3872,-2.272874
989,2.105222,10.128538,-2.217788
990,2.320774,9.668694,-2.351909
991,2.42855,9.582473,-2.421365
992,2.306404,9.491462,-2.632126
993,2.110012,9.503438,-2.775828
994,1.777104,9.608818,-2.950664
995,1.504072,9.83395,-2.965034
996,1.334026,10.207573,-2.711162
997,1.276545,10.581196,-2.40939
998,1.25499,10.832673,-2.004631
999,1.27415,10.710527,-1.791475
1000,1.343606,10.542876,-1.607058
1001,1.341211,10.272239,-1.523232
1002,1.25499,9.968071,-1.520837
1003,1.346001,9.601633,-1.674119
1004,1.353186,9.433982,-1.887275
1005,1.384321,9.376501,-2.071692
1006,1.413062,9.235195,-2.327959
1007,1.444197,9.17532,-2.514771
1008,1.607058,9.144185,-2.553091
1009,1.686094,9.18969,-2.562671
1010,1.767524,9.21364,-2.596201
1011,1.81303,9.127419,-2.548301
1012,1.714834,9.043594,-2.553091
1013,1.585503,9.084309,-2.464475
1014,1.405876,9.163345,-2.354304
1015,1.23583,9.20406,-2.160308
1016,0.977168,9.295071,-2.090852
1017,0.740061,9.359736,-2.019001
1018,0.505349,9.443562,-1.975891
1019,0.361648,9.697434,-1.942361
1020,0.368833,9.927356,-1.868115
1021,0.514929,9.975256,-1.623823
1022,0.778381,9.850715,-1.417852
1023,1.18314,9.740544,-1.28373
1024,1.609453,9.807605,-1.257385
1025,1.89925,9.989626,-1.25499
1026,1.987866,10.080637,-1.271755
1027,2.117197,9.958491,-1.26936
1028,2.112407,9.798025,-1.599873
1029,2.215393,9.85311,-2.177073
1030,2.282454,10.118958,-2.804568
1031,2.205813,10.312954,-3.281177
1032,2.021396,10.492581,-3.309917
1033,1.83219,10.466235,-2.895579
1034,1.496887,10.554851,-2.234553
1035,1.257385,10.748848,-1.566343
1036,0.883762,10.866204,-1.025068
1037,0.665815,10.947634,-0.831072
1038,0.428708,10.708132,-0.737666
1039,0.330513,10.514136,-0.699346
1040,0.514929,10.569221,-0.60594
1041,1.2502,11.321257,-0.467029
1042,2.49082,12.343931,-0.778381
1043,3.72665,13.208533,-1.266965
1044,4.397256,13.225298,-1.896855
1045,4.466711,12.403806,-2.39981
1046,3.961362,11.663745,-2.107617
1047,2.988984,11.512859,-1.219065
1048,1.815425,11.977493,-0.177231
1049,0.64905,12.492422,0.383203
1050,-0.100591,12.90197,0.519719
1051,-0.239502,13.124707,0.661025
1052,-0.093406,12.983401,0.704136
1053,-0.040715,12.375066,0.287402
1054,0.100591,11.829001,0.02395
1055,0.469424,12.178674,-0.574805
1056,0.958008,12.88281,-1.386716
1057,1.379531,13.4648,-1.89446
1058,1.348396,13.606106,-2.541116
1059,1.063389,13.266013,-3.226091
1060,0.414338,12.346326,-3.846401
1061,0.098196,11.565549,-4.619993
1062,0.035925,11.230247,-5.007986
1063,0.007185,11.100916,-4.658313
1064,0.225132,11.134446,-4.109854
1065,0.684976,11.314072,-3.329077
1066,1.257385,11.560759,-2.263293
1067,1.599873,11.761941,-1.24062
1068,1.367556,11.843372,-0.570015
1069,1.003513,11.826606,-0.275427
1070,0.728086,11.407478,-0.364043
1071,0.543669,10.928474,-0.500559
1072,0.301772,10.183623,-0.603545
1073,0.196392,9.505833,-0.948428
1074,-0.04311,8.64123,-0.977168
1075,-0.328118,8.023315,-0.919687
1076,-0.627495,7.39103,-0.847837
1077,-0.862207,6.959927,-0.764011
1078,-1.161584,6.667734,-0.445474
1079,-1.324446,6.682104,-0.083826
1080,-1.439407,6.6845,0.086221
1081,-1.369951,6.653364,0.325723
1082,-1.185535,6.68929,0.675396
1083,-0.989143,6.634204,0.60594
1084,-0.771196,6.638994,0.435894
1085,-0.536484,6.665339,0.296982
1086,-0.450264,6.507268,0.423918
1087,-0.349673,6.212681,0.555645
1088,-0.203577,5.707332,0.58678
1089,-0.117356,5.125342,0.694556
1090,0.02874,4.799619,0.929268
1091,0.246687,4.593647,1.343606
1092,0.488584,4.854705,2.076482
1093,0.946033,5.798342,3.151846
1094,1.537603,7.038962,4.517007
1095,2.416575,8.794512,6.670129
1096,3.403323,10.832673,8.365803
1097,3.891907,13.024116,10.071057
1098,3.336262,15.30178,11.520044
1099,2.445315,17.160315,12.058923
1100,2.009421,17.541123,11.187136
1101,1.927991,15.96999,8.701106
1102,0.881367,13.277988,5.803132
1103,-0.656235,10.289004,3.12071
1104,-2.071692,9.19927,2.622546
1105,-3.218906,8.406519,2.289639
1106,-3.194956,9.345366,1.118474
1107,-1.549578,13.946199,1.997446
1108,2.064507,17.869241,0.524509
1109,2.711162,15.423926,-1.346001
1110,0.165256,11.912827,-1.681304
1111,-3.159031,7.364685,-2.100432
1112,-2.938689,3.985313,-0.63468
1113,-0.60594,2.699187,-2.253713
1114,1.233435,2.246528,-3.537444
1115,3.410508,5.589976,-2.074087
1116,3.285967,8.703501,-3.741021
1117,3.017725,10.492581,-4.093088
1118,3.441643,12.042158,-3.733835
1119,3.594924,12.29124,-3.147056
1120,3.163821,11.352393,-1.85614
1121,2.095642,10.236313,-0.074246
1122,0.560435,9.18969,0.773591
1123,-0.850232,8.152646,0.711321
1124,-1.626218,7.838899,-0.026345
1125,-1.772314,8.102351,-0.507744
1126,-1.19751,8.655601,-0.57241
1127,-0.469424,9.15137,-0.673
1128,0.426313,9.553733,-0.881367
1129,1.175955,10.013577,-1.125659
1130,1.863325,10.238708,-1.092129
1131,2.304009,10.193203,-1.037043
1132,2.39502,10.006392,-0.910107
1133,2.519561,9.666299,-0.859812
1134,2.742297,9.342971,-1.008303
1135,3.01054,9.345366,-1.204695
1136,3.10155,9.675879,-1.238225
1137,3.036885,10.035132,-0.922083
1138,2.878813,10.186018,-0.704136
1139,2.694397,10.047107,-0.570015
1140,2.39502,9.714199,-0.756826
1141,1.89925,9.378896,-1.408271
1142,1.472937,9.2328,-2.280059
1143,1.281335,9.328601,-2.773433
1144,1.317261,9.489067,-2.718347
1145,1.475332,9.917776,-2.40939
1146,1.654958,10.562036,-1.80824
1147,1.724414,11.366763,-1.013093
1148,1.997446,11.611055,-0.390388
1149,2.210603,11.191926,0.380808
1150,2.392625,11.024275,1.065784
1151,2.689607,11.496094,1.472937
1152,2.885999,12.413386,1.26457
1153,3.01054,13.139077,0.996328
1154,2.888394,13.043276,0.759221
1155,2.682422,12.439731,0.574805
1156,2.39502,12.298425,0.443079
1157,1.999841,12.827725,0.342488
1158,1.458567,13.376184,0.241897
1159,0.826282,13.318704,0.522114
1160,1.027463,13.562996,0.828677
1161,2.981799,15.610737,1.108894
1162,6.500083,18.317109,0.835862
1163,7.99218,18.305134,0.296982
1164,6.773115,15.787969,-0.213157
1165,4.90979,13.263618,-0.536484
1166,3.427273,11.958333,-0.349673
1167,2.157913,11.730806,-0.162861
1168,1.17356,12.899575,-0.687371
1169,1.154399,14.530583,-2.095642
1170,1.27415,15.517332,-4.677473
1171,1.518442,15.716118,-6.148015
1172,1.805845,15.610737,-5.829478
1173,1.585503,14.880256,-5.316943
1174,0.974773,13.742622,-5.166057
1175,-0.040715,12.657678,-4.653523
1176,-1.087339,11.917617,-3.882327
1177,-1.252595,11.903247,-3.341052
1178,-0.718506,12.171489,-2.375859
1179,-0.00958,12.092454,-1.949546
1180,0.637075,11.687695,-2.371069
1181,1.22625,10.818303,-2.775828
1182,0.912502,9.711804,-2.445315
1183,0.335303,8.193362,-2.845283
1184,-0.112566,7.077283,-2.885999
1185,-0.56762,6.255791,-2.435735
1186,-1.005908,5.685776,-2.155518
1187,-1.448987,5.460645,-1.781895
1188,-1.777104,5.235513,-1.444197
1189,-2.045347,5.269043,-1.130449
1190,-1.947151,5.51573,-0.888552
1191,-1.714834,5.625901,-1.029858
1192,-1.439407,5.853428,-1.149609
1193,-1.104104,6.006709,-1.190325
1194,-0.857417,6.006709,-1.475332
1195,-0.60115,5.846243,-1.664539
1196,-0.584385,5.45825,-1.686094
1197,-0.550854,5.192402,-1.760339
1198,-0.641865,4.675078,-1.415457
1199,-0.725691,4.28469,-1.144819
1200,-1.032253,3.911067,-0.234712
1201,-1.334026,3.73623,1.075364
1202,-1.374741,3.762576,2.212998
1203,-0.665815,4.725374,3.204536
1204,0.699346,6.389912,4.217629
1205,2.730322,9.685459,7.491621
1206,4.790039,14.477893,10.171648
1207,6.480923,19.619401,11.292517
1208,6.866521,19.619401,13.016931
1209,7.237749,19.619401,13.098362
1210,6.064189,19.619401,10.928474
1211,3.03449,15.179634,7.048542
1212,0.294587,11.61824,4.804409
1213,-2.4525,10.775193,4.818779
1214,-3.956572,7.388635,-0.756826
1215,-2.933899,10.018367,-0.526904
1216,-1.003513,11.687695,-4.701423
1217,-0.071851,11.577524,-3.935017
1218,-0.665815,11.5895,-2.897974
1219,-2.579436,8.442444,-5.364844
1220,-3.070415,6.265371,-2.950664
1221,-1.22625,5.391189,-1.324446
1222,1.092129,5.185217,-1.513652
1223,2.785408,6.09293,-4.148174
1224,4.040398,7.889194,-6.430627
1225,4.483477,9.345366,-6.282136
1226,4.423601,10.605146,-4.272715
1227,2.735112,10.966794,-1.844165
1228,1.266965,10.645862,-0.330513
1229,0.459844,9.917776,0.064666
1230,0.153281,8.725056,-0.888552
1231,0.196392,7.834109,-2.514771
1232,0.665815,7.805369,-3.355422
1233,1.472937,8.423284,-2.955454
1234,2.541116,9.230405,-2.47166
1235,3.295547,9.457932,-1.578318
1236,3.537444,9.443562,-0.890947
1237,3.314707,9.273516,-0.773591
1238,2.50519,9.273516,-0.65863
1239,1.674119,9.25196,-0.64426
1240,0.998723,9.342971,-0.811912
1241,0.790356,9.75731,-0.960403
1242,0.747246,10.118958,-0.924478
1243,0.725691,10.41594,-0.131726
1244,0.603545,10.729688,0.821492
1245,0.411943,10.722502,1.058599
1246,0.237107,10.538086,0.59157
1247,0.421523,10.269844,-0.457449
1248,1.003513,9.994417,-1.463357
1249,1.84177,9.881851,-2.296824
1250,2.646497,9.912986,-2.701582
1251,3.168611,10.365645,-2.562671
1252,3.345842,11.223062,-2.021396
1253,3.046465,11.996653,-0.778381
1254,2.658472,11.951147,0.57241
1255,2.351909,10.911709,1.590293
1256,2.641707,10.035132,2.375859
1257,3.412903,10.250684,2.857258
1258,4.334985,11.591895,2.359094
1259,5.012776,12.724739,1.23104
1260,5.122947,12.734319,-0.110171
1261,4.454736,12.499607,-0.435894
1262,3.372188,13.083992,-0.234712
1263,2.069297,14.166541,-0.244292
1264,0.380808,14.394067,0.514929
1265,-0.205972,14.178516,1.676514
1266,0.871787,15.402371,2.742297
1267,3.860771,17.945881,3.343447
1268,5.884563,18.726658,3.444038
1269,5.47262,16.726816,1.580713
1270,3.963757,14.616804,-0.771196
1271,2.864443,13.905483,-1.463357
1272,1.535208,14.518608,-1.987866
1273,0.677791,15.167659,-4.385281
1274,0.764011,15.754438,-6.991062
1275,1.724414,16.144827,-7.4054
1276,2.004631,16.075371,-6.344407
1277,1.475332,15.538887,-5.398374
1278,0.237107,14.420413,-4.282295
1279,-1.19751,13.47438,-3.520679
1280,-1.547183,12.846885,-3.11113
1281,-1.362766,12.511582,-2.098037
1282,-0.701741,11.991863,-2.076482
1283,0.376018,11.66614,-2.287244
1284,1.863325,10.660232,-2.919529
1285,1.88009,9.728569,-2.584226
1286,1.901646,8.322693,-3.769761
1287,1.585503,7.209009,-3.317102
1288,0.826282,6.133645,-2.610571
1289,0.174836,5.508545,-2.40939
1290,-0.476609,4.931345,-1.815425
1291,-1.008303,4.524192,-1.657354
1292,-1.362766,4.121829,-1.357976
1293,-1.616638,3.604504,-1.075364
1294,-1.571133,3.434458,-1.312471
1295,-1.480122,3.384163,-1.858535
1296,-1.161584,3.539839,-2.296824
1297,-0.924478,3.568579,-2.727927
1298,-0.646655,3.776946,-2.950664
1299,-0.507744,3.851191,-2.962639
1300,-0.385598,4.061953,-2.715952
1301,-0.251477,4.33259,-2.066902
1302,-0.203577,4.543352,-0.792751
1303,-0.308958,4.85231,0.869392
1304,-0.395178,5.570815,2.569856
1305,-0.392783,7.297625,4.991221
1306,-0.227527,9.433982,6.823411
1307,0.292192,11.797866,7.558682
1308,1.106499,14.444363,8.032896
1309,2.172283,17.73512,9.735754
1310,3.796106,19.619401,12.013418
1311,5.915698,19.619401,11.752361
1312,6.964717,17.469272,8.739426
1313,5.728887,13.574971,4.679868
1314,2.699187,10.868599,2.792593
1315,-2.002236,11.505674,2.670447
1316,-4.835544,10.629097,-0.203577
1317,-4.787644,13.172607,0.308958
1318,-5.115762,14.631174,-0.330513
1319,-5.257068,15.438296,-3.853586
1320,-3.592529,17.397422,-2.548301
1321,1.504072,17.986597,-1.757944
1322,6.296506,12.145144,-1.539998
1323,6.806646,5.51573,-0.479004
1324,4.131409,1.595083,-1.686094
1325,2.038162,0.342488,-2.136357
1326,1.365161,0.831072,-3.614084
1327,1.932781,3.11592,-3.824846
1328,2.766248,6.643784,-3.439248
1329,2.723137,9.764495,-2.943479
1330,2.847678,12.731924,-1.963916
1331,3.07281,13.754597,-1.523232
1332,2.222578,12.664863,-2.256108
1333,1.427432,10.557246,-3.750601
1334,0.969983,9.747729,-4.220024
1335,0.797542,9.266331,-3.391348
1336,0.955613,8.866362,-1.956731
1337,1.346001,8.456814,-1.23583
1338,1.405876,8.155042,-0.807122
1339,1.266965,8.178992,-0.838257
1340,0.893342,8.63165,-0.819097
1341,0.55804,9.352551,-1.149609
1342,0.546064,10.255474,-1.508862
1343,0.728086,10.930869,-1.355581
1344,0.821492,11.06499,-0.526904
1345,0.65863,10.815908,0.541274
1346,0.435894,10.243499,1.271755
1347,0.459844,9.821975,1.087339
1348,0.732876,9.366921,0.189207
1349,1.072969,9.055569,-0.960403
1350,1.422642,9.050779,-1.702859
1351,1.829795,9.599238,-2.086062
1352,2.095642,10.190808,-1.79866
1353,2.076482,10.332114,-1.266965
1354,1.901646,9.956096,-0.943638
1355,1.872905,9.690249,-0.5772
1356,2.155518,9.951306,-0.285007
1357,2.675237,10.607542,0.064666
1358,3.273992,11.048225,0.378413
1359,3.578159,11.148816,0.131726
1360,3.68354,11.06978,-0.091011
1361,3.448828,11.100916,-0.119751
1362,3.0776,11.187136,-0.165256
1363,2.699187,11.730806,-0.289797
1364,2.351909,12.566667,-0.229922
1365,1.765129,12.741504,-0.026345
1366,1.060994,12.26729,0.737666
1367,0.524509,11.737991,1.705254
1368,0.816702,11.766731,2.201023
1369,1.906436,13.972544,2.014211
1370,4.138594,17.502803,1.726809
1371,5.391189,17.430952,1.966311
1372,4.148174,14.008469,0.900527
1373,2.826123,11.60387,-0.814307
1374,1.997446,11.855347,-0.787961
1375,1.963916,13.098362,-0.711321
1376,1.961521,13.244458,-2.007026
1377,1.913621,13.050461,-4.174519
1378,1.853745,13.148657,-5.48699
1379,1.619033,13.586946,-5.50136
1380,1.458567,14.252761,-5.070256
1381,1.319656,14.341377,-4.87147
1382,1.144819,13.572576,-4.28469
1383,1.314866,12.808564,-3.618875
1384,1.535208,12.274475,-2.878813
1385,1.484912,11.491304,-2.773433
1386,1.369951,10.97877,-2.917134
1387,1.389111,11.005115,-3.0776
1388,1.403481,10.784773,-3.108735
1389,1.096919,10.39678,-3.094365
1390,0.58199,9.877061,-2.936294
1391,0.191602,9.050779,-2.998564
1392,-0.366438,8.267607,-2.48124
1393,-0.754431,7.446116,-1.80345
1394,-0.66821,6.71803,-1.257385
1395,-0.675396,5.965994,-0.519719
1396,-0.63468,5.508545,-0.093406
1397,-0.63468,5.508545,-0.093406
1398,-0.565225,5.190007,-0.059875
1399,-0.761616,6.18394,0.04311
1400,-0.845442,7.163503,-0.031135
1401,-0.680186,8.068821,0.02874
1402,-0.687371,8.830437,0.177231
1403,-0.60594,9.127419,0.134121
1404,-0.687371,8.887917,0.232317
1405,-0.919687,8.241262,0.488584
1406,-1.017883,7.079678,0.831072
1407,-0.907712,6.11209,0.780776
1408,-0.651445,5.391189,0.457449
1409,-0.65863,5.089417,0.55325
1410,-0.241897,5.156477,0.773591
1411,0.641865,5.640271,0.948428
1412,1.80824,6.440208,1.068179
1413,2.857258,7.810159,2.011816
1414,3.410508,9.692644,3.841611
1415,3.436853,11.630215,5.51094
1416,3.103945,13.165422,6.114485
1417,2.519561,14.240786,6.315667
1418,1.85135,15.32094,6.971902
1419,1.163979,15.651453,6.959927
1420,0.730481,14.782061,6.274951
1421,0.440684,13.110337,4.897815
1422,0.282612,10.631492,2.615361
1423,0.423918,7.608977,0.526904
1424,0.311353,5.939648,-0.148491
1425,-0.931663,6.258186,0.04311
1426,-1.281335,5.755232,-3.968547
1427,-1.144819,9.18969,-2.955454
1428,-0.929268,11.752361,-1.362766
1429,-0.661025,12.240945,-0.438289
1430,-0.598755,12.363091,0.423918
1431,-1.463357,12.981006,0.593965
1432,-2.016606,15.483801,-1.092129
1433,0.162861,19.619401,-0.560435
1434,2.862048,19.619401,-0.488584
1435,3.544629,17.454902,-2.028582
1436,2.004631,11.546389,-3.305127
1437,0.538879,6.952742,-3.197351
1438,-0.57241,3.573369,-2.933899
1439,-1.22146,1.21667,-3.192561
1440,-0.289797,1.063389,-3.899092
1441,1.499282,3.099155,-4.660708
1442,2.830913,6.207891,-4.92895
1443,3.472778,9.917776,-3.602109
1444,3.796106,13.553416,-1.293311
1445,3.992498,16.049026,0.320933
1446,3.992498,16.049026,0.320933
1447,3.69791,16.5903,1.551973
1448,1.626218,13.831238,2.121987
1449,0.486189,10.990745,1.041833
1450,0.102986,9.110654,0.479004
1451,0.215552,8.274792,-0.304167
1452,0.447869,7.781418,-1.458567
1453,0.790356,7.723938,-2.368674
1454,1.166375,8.461604,-3.000959
1455,1.27415,9.496252,-3.070415
1456,1.365161,10.538086,-2.620151
1457,1.446592,11.105706,-2.220183
1458,1.587898,11.160791,-1.82261
1459,1.868115,10.600356,-1.614243
1460,2.282454,9.884246,-1.597478
1461,2.545906,9.249565,-1.705254
1462,2.608176,8.851992,-1.671724
1463,2.567461,8.799302,-1.714834
1464,2.421365,9.077124,-1.678909
1465,2.304009,9.541758,-1.599873
1466,2.105222,9.82916,-1.389111
1467,1.882485,9.984836,-1.106499
1468,1.674119,9.972861,-0.946033
1469,1.484912,9.850715,-0.972378
1470,1.405876,9.920171,-1.307681
1471,1.331631,9.996812,-1.83698
1472,1.17356,10.202783,-2.474055
1473,1.008303,10.360854,-2.739902
1474,0.747246,10.41115,-2.840493
1475,0.584385,10.403965,-2.577041
1476,0.483794,10.281819,-2.253713
1477,0.6251,10.219548,-1.8274
1478,0.792751,10.075847,-1.089734
1479,0.967588,9.929751,-0.440684
1480,1.24062,9.714199,-0.026345
1481,1.571133,9.740544,-0.01437
1482,2.033372,9.82437,-0.258662
1483,2.311194,10.121353,-0.661025
1484,2.318379,10.42552,-1.096919
1485,2.157913,10.700947,-1.745969
1486,1.88488,10.746453,-2.184258
1487,1.549578,10.588381,-2.454895
1488,1.346001,10.265054,-2.524351
1489,1.195115,9.85311,-2.519561
1490,1.266965,9.575288,-2.390229
1491,1.386716,9.395662,-2.165098
1492,1.587898,9.422007,-2.026187
1493,1.719624,9.546548,-1.863325
1494,1.745969,9.742939,-1.645378
1495,1.676514,9.855505,-1.516047
1496,1.472937,9.972861,-1.621428
1497,1.262175,10.123748,-1.712439
1498,1.049019,10.42073,-2.007026
1499,0.838257,10.588381,-2.198628
1500,0.560435,10.612332,-2.4046
1501,0.241897,10.370435,-2.459685
1502,0.174836,10.042317,-2.541116
1503,0.227527,9.855505,-2.236948
1504,0.352068,9.76689,-1.853745
1505,0.524509,9.901011,-1.444197
1506,0.699346,9.987231,-1.214275
