frame,acc x,acc y,acc z
894,0.907712,9.972861,-0.407153
895,0.962798,9.946516,-0.414338
896,1.022673,9.984836,-0.459844
897,1.094524,10.006392,-0.368833
898,1.185535,10.001602,-0.387993
899,1.298101,10.003997,-0.402363
900,1.312471,9.956096,-0.474214
901,1.312471,9.956096,-0.474214
902,1.379531,9.891431,-0.416733
903,1.417852,9.874666,-0.459844
904,1.391506,9.946516,-0.507744
905,1.262175,9.915381,-0.613125
906,1.19751,10.020762,-0.603545
907,1.051414,9.960886,-0.536484
908,1.041833,9.85311,-0.507744
909,1.041833,9.85311,-0.507744
910,1.051414,9.78605,-0.435894
911,1.199905,9.716594,-0.464634
912,1.535208,9.774075,-0.409548
913,1.535208,9.774075,-0.409548
914,2.445315,10.054292,-0.376018
915,2.885999,10.344089,-0.495769
916,3.228486,10.40636,-0.63947
917,3.420088,10.528506,-0.732876
918,3.484753,10.37283,-0.728086
919,3.417693,10.197993,-0.720901
920,3.417693,10.197993,-0.720901
921,2.926714,9.778865,-0.888552
922,2.680027,9.618398,-0.852627
923,2.680027,9.618398,-0.852627
924,2.315984,9.498647,-0.764011
925,1.8753,9.536968,-0.524509
926,1.8753,9.536968,-0.524509
927,1.719624,9.630374,-0.421523
928,1.528022,9.84832,-0.308958
929,1.528022,9.84832,-0.308958
930,1.487307,9.891431,-0.550854
931,1.465752,9.996812,-0.701741
932,1.623823,10.176438,-0.752036
933,1.765129,10.317744,-0.665815
934,2.49082,10.650652,-0.589175
935,2.809358,10.669812,-0.603545
936,3.09676,10.751243,-0.64426
937,3.285967,10.753638,-0.627495
938,3.360212,10.609937,-0.680186
939,3.410508,10.456655,-0.613125
940,3.410508,10.456655,-0.613125
941,3.247646,10.128538,-0.541274
942,2.766248,9.889036,-0.340093
943,2.4046,9.896221,-0.261057
944,2.042952,9.912986,-0.126936
945,2.042952,9.912986,-0.126936
946,1.738784,9.86269,-0.141306
947,1.271755,9.917776,0.0479
948,1.087339,10.020762,0.079036
949,0.869392,10.140513,0.050295
950,0.869392,10.140513,0.050295
951,0.5772,10.174043,0.026345
952,0.0479,10.135723,-0.00958
953,-0.01437,10.135723,-0.119751
954,0.083826,10.269844,-0.098196
955,0.316143,10.502161,0.040715
956,0.570015,10.768008,0.275427
957,0.826282,10.868599,0.356858
958,0.962798,10.717712,0.383203
959,0.962798,10.717712,0.383203
960,0.946033,10.075847,0.320933
961,0.881367,9.78126,0.349673
962,0.871787,9.620793,0.313748
963,0.981958,9.412427,0.225132
964,1.439407,9.630374,-0.263452
965,2.169888,11.086545,-1.508862
966,3.079995,12.616963,-2.203418
967,4.203259,13.756992,-1.83219
968,4.203259,13.756992,-1.83219
969,4.387676,12.391831,-0.416733
970,3.745811,11.0123,-0.246687
971,3.118315,9.905801,-0.098196
972,3.118315,9.905801,-0.098196
973,1.724414,8.899893,0.198787
974,1.298101,9.23759,-0.0479
975,1.027463,10.42552,-0.438289
976,0.984353,11.886482,-0.740061
977,1.072969,13.586946,-0.866997
978,1.298101,14.832356,-0.823887
979,1.362766,15.052698,-0.852627
980,1.022673,14.422808,-0.759221
981,0.404758,13.644426,-0.646655
982,-0.471819,12.870835,-0.759221
983,-1.199905,12.336746,-0.704136
984,-1.640588,12.058923,-0.524509
985,-1.640588,12.058923,-0.524509
986,-1.645378,11.910432,0.170046
987,-1.504072,11.697275,0.189207
988,-1.209485,11.144026,-0.380808
989,-0.704136,10.492581,-0.850232
990,-0.0479,9.714199,-1.288521
991,0.59157,9.036409,-1.266965
992,1.266965,8.55022,-1.015488
993,1.820215,8.234077,-0.622705
994,2.193838,7.862849,-0.162861
995,2.50998,7.565867,0.325723
996,2.557881,7.161108,0.807122
997,2.49082,6.78988,1.16877
998,2.280059,6.526428,1.566343
999,1.999841,6.380332,1.78429
1000,1.631008,6.277346,1.83219
1001,1.199905,6.229446,1.913621
1002,0.749641,6.219866,1.882485
1003,0.308958,6.260581,1.942361
1004,-0.153281,6.399492,1.987866
1005,-0.464634,6.547983,2.174678
1006,-0.725691,6.7803,2.363884
1007,-0.974773,7.012617,2.821333
1008,-1.322051,7.295229,3.465593
1009,-1.573528,7.625742,4.363726
1010,-1.733994,8.114326,5.233118
1011,-1.733994,8.114326,5.233118
1012,-1.769919,8.811277,6.006709
1013,-1.204695,10.044712,5.980364
1014,-0.898132,10.41115,6.325247
1015,-0.579595,10.736873,6.444998
1016,-0.299377,11.07457,5.800737
1017,0.170046,11.326047,4.725374
1018,0.170046,11.326047,4.725374
1019,0.799937,11.247012,3.657195
1020,2.217788,10.923684,3.154241
1021,2.914739,10.717712,3.475173
1022,3.233276,10.461445,4.169729
1023,3.518284,10.265054,5.213958
1024,3.518284,10.265054,5.213958
1025,3.547024,11.611055,6.370752
1026,3.113525,12.758269,4.746929
1027,4.964875,14.679075,2.921924
1028,8.085586,15.021562,0.565225
1029,8.119116,13.206138,-1.374741
1030,4.493057,10.803933,-0.158071
1031,1.058599,8.533455,0.799937
1032,-2.687212,4.744534,-1.326841
1033,-5.158872,2.256108,-3.161426
1034,-5.891748,2.081272,-3.623665
1035,-5.204377,3.67875,-3.599714
1036,-3.448828,6.433022,-2.347119
1037,-1.051414,10.121353,-0.445474
1038,0.809517,13.141472,0.819097
1039,1.796265,14.937737,1.559158
1040,2.469265,15.234719,1.738784
1041,2.967429,14.154565,1.710044
1042,3.882327,12.128379,1.295706
1043,4.140989,9.606423,0.316143
1044,3.944597,7.307205,-0.771196
1045,3.570974,5.824688,-1.642983
1046,3.353027,5.374424,-1.987866
1047,3.175796,5.779182,-1.587898
1048,3.1255,7.113208,-0.941243
1049,3.206931,8.866362,-0.234712
1050,3.154241,10.744058,0.332908
1051,3.132686,11.752361,0.481399
1052,3.10634,12.166699,0.464634
1053,3.09197,12.169094,0.570015
1054,3.108735,11.553574,0.64905
1055,3.008145,10.763218,0.63947
1056,2.682422,10.006392,0.447869
1057,2.112407,9.307046,0.359253
1058,1.463357,9.077124,0.0479
1059,1.008303,9.105864,-0.110171
1060,0.694556,9.457932,-0.131726
1061,0.797542,9.922566,-0.349673
1062,1.080154,10.380015,-0.210762
1063,1.429827,10.751243,0.0479
1064,1.834585,11.07936,0.239502
1065,2.143542,11.263777,0.701741
1066,2.251318,11.146421,0.912502
1067,2.236948,10.894944,1.039438
1068,2.167493,10.45905,0.905317
1069,2.038162,9.968071,0.613125
1070,1.88967,9.177715,0.225132
1071,1.346001,8.873547,0.03832
1072,0.531694,9.666299,-0.320933
1073,0.112566,11.247012,-0.399968
1074,0.720901,12.628938,0.383203
1075,1.975891,12.861255,1.805845
1076,2.919529,11.970308,2.814148
1077,3.173401,10.98835,3.154241
1078,2.953059,10.3872,2.799778
1079,2.42376,10.233918,2.088457
1080,2.062112,10.322534,1.26936
1081,2.275269,11.167976,-0.138911
1082,2.656077,13.52707,-1.985471
1083,3.695515,15.591577,-2.375859
1084,4.89063,15.553257,-1.075364
1085,4.775669,13.548625,-0.316143
1086,3.343447,10.947634,-0.055085
1087,1.683699,8.737031,-0.450264
1088,0.273032,7.288044,-1.051414
1089,-0.871787,7.074888,-1.348396
1090,-1.482517,8.404124,-1.413062
1091,-1.319656,11.124866,-1.724414
1092,-0.062271,14.183306,-1.78429
1093,2.093247,16.745977,-0.955613
1094,3.779341,17.665664,-0.529299
1095,3.860771,16.238232,-0.898132
1096,3.094365,14.202466,-1.053809
1097,2.296824,12.482842,-0.665815
1098,1.662144,11.314072,-0.344883
1099,1.051414,10.619517,-0.285007
1100,0.502954,10.44468,-0.598755
1101,-0.088616,10.43031,-0.969983
1102,-0.603545,10.557246,-1.159189
1103,-0.898132,10.533296,-1.401086
1104,-0.900527,10.550061,-1.365161
1105,-0.661025,10.399175,-1.166375
1106,-0.455054,9.999207,-0.984353
1107,-0.234712,9.419612,-0.747246
1108,-0.086221,8.63644,-0.488584
1109,0.031135,7.824529,-0.146096
1110,0.119751,6.950347,0.179626
1111,0.141306,6.217471,0.56762
1112,0.227527,5.47741,0.866997
1113,0.289797,4.912185,1.113684
1114,0.402363,4.591252,1.27894
1115,0.512534,4.433181,1.432222
1116,0.546064,4.459526,1.645378
1117,0.536484,4.667893,2.054927
1118,0.570015,4.964875,2.371069
1119,0.479004,5.360054,2.957849
1120,0.332908,6.066584,3.568579
1121,0.205972,6.888076,4.167334
1122,0.124541,7.994575,4.682263
1123,0.263452,9.034014,5.005591
1124,0.584385,10.111772,5.154082
1125,0.910107,11.000325,5.312153
1126,1.128054,11.714041,5.348079
1127,1.18314,12.109219,5.060676
1128,1.18793,12.106824,4.517007
1129,1.082549,11.831396,4.356541
1130,0.811912,11.230247,4.746929
1131,0.579595,10.45426,5.503755
1132,0.296982,9.8579,6.274951
1133,-0.021555,9.630374,7.046147
1134,-0.761616,10.708132,7.714358
1135,-0.761616,10.708132,7.714358
1136,-2.011816,15.598762,4.27032
1137,-0.093406,18.060842,2.694397
1138,3.410508,18.542241,0.996328
1139,5.551655,16.671731,0.179626
1140,5.551655,16.671731,0.179626
1141,2.44771,7.838899,-0.409548
1142,0.273032,2.878813,-3.427273
1143,-1.597478,-0.03832,-4.521797
1144,-1.963916,-1.099314,-5.367239
1145,-0.881367,0.249082,-5.884563
1146,0.946033,3.762576,-4.370911
1147,3.290757,8.823252,-1.626218
1148,4.706213,13.958174,0.759221
1149,4.552932,17.560283,1.80345
1150,4.3278,18.688337,1.631008
1151,4.069138,16.362773,1.369951
1152,3.388953,12.394226,1.022673
1153,2.366279,8.250842,0.419128
1154,1.111289,5.788762,0.088616
1155,0.011975,4.385281,-0.354463
1156,-0.407153,4.452341,-0.301772
1157,-0.189207,5.635481,0.01916
1158,0.555645,7.513176,0.467029
1159,1.839375,9.649534,0.670605
1160,3.230881,11.369158,0.759221
1161,4.143384,12.324771,0.730481
1162,4.433181,12.396621,0.766406
1163,4.059558,11.496094,0.840652
1164,3.379373,10.432705,0.924478
1165,3.379373,10.432705,0.924478
1166,2.203418,8.751401,0.764011
1167,1.748364,8.547825,0.641865
1168,1.396296,8.648416,0.136516
1169,1.396296,8.648416,0.136516
1170,1.104104,8.938213,-0.459844
1171,1.013093,9.627979,-1.422642
1172,1.334026,10.073452,-1.429827
1173,1.820215,10.547666,-1.369951
1174,2.244133,10.885364,-1.135239
1175,2.550696,11.189531,-0.555645
1176,2.550696,11.189531,-0.555645
1177,2.4525,11.153606,-0.102986
1178,1.729204,10.109377,1.286125
1179,1.439407,9.671089,1.369951
1180,1.353186,10.178833,1.003513
1181,1.487307,11.335627,0.656235
1182,2.026187,12.798984,0.747246
1183,2.996169,13.349839,1.276545
1184,3.851191,12.89718,2.042952
1185,4.234395,11.996653,2.773433
1186,4.720583,11.481724,2.799778
1187,5.417534,12.049343,1.78908
1188,5.934858,13.982124,-0.387993
1189,6.485713,15.435901,-2.057322
1190,6.552773,15.601157,-3.03928
1191,6.552773,15.601157,-3.03928
1192,2.885999,12.767849,-2.131567
1193,0.261057,10.588381,-0.560435
1194,-1.686094,8.851992,0.467029
1195,-2.620151,7.563472,0.457449
1196,-2.771038,7.290439,0.002395
1197,-2.665657,7.822134,-0.256267
1198,-2.253713,9.359736,-0.263452
1199,-1.417852,11.6374,-0.665815
1200,-0.158071,14.300662,-0.742456
1201,1.745969,16.55198,-0.380808
1202,3.657195,17.447717,0.076641
1203,4.392466,16.377144,0.100591
1204,3.554209,14.0899,0.234712
1205,2.335144,12.063713,0.241897
1206,1.635798,10.700947,-0.210762
1207,1.18793,10.042317,-0.464634
1208,0.359253,9.539363,-0.488584
1209,-0.256267,9.129814,-1.386716
1210,-0.256267,9.129814,-1.386716
1211,0.160466,9.328601,-2.363884
1212,0.689766,9.457932,-2.129172
1213,1.135239,9.402847,-2.066902
1214,1.391506,9.017249,-1.858535
1215,1.391506,9.017249,-1.858535
1216,1.465752,7.711963,-1.010698
1217,1.219065,7.139553,-0.306563
1218,0.912502,6.512058,0.459844
1219,0.66821,6.011499,1.037043
1220,0.414338,5.56842,1.456172
1221,0.184417,5.075046,1.762734
1222,-0.05748,4.660708,2.208208
1223,-0.217947,4.414021,2.684817
1224,-0.335303,4.390071,2.967429
1225,-0.335303,4.390071,2.967429
1226,-0.340093,4.605623,3.242856
1227,-0.035925,5.283413,3.412903
1228,0.912502,7.273674,3.623665
1229,1.367556,8.533455,3.69312
1230,1.367556,8.533455,3.69312
1231,1.78908,10.820698,4.27032
1232,1.85135,11.716436,4.512217
1233,1.932781,12.341536,4.469106
1234,2.227368,12.83491,4.718188
1235,2.227368,12.83491,4.718188
1236,2.320774,12.367881,5.606741
1237,1.781895,11.156001,6.061794
1238,1.008303,9.735754,6.401887
1239,0.246687,8.837622,6.864126
1240,0.246687,8.837622,6.864126
1241,-1.561553,11.733201,7.707173
1242,-1.688489,14.693445,4.449946
1243,1.659749,18.439255,2.823728
1244,6.77551,19.619401,-1.032253
1245,6.77551,19.619401,-1.032253
1246,5.441484,14.418018,0.093406
1247,5.441484,14.418018,0.093406
1248,2.248923,8.595725,-2.660867
1249,-3.733835,-0.500559,-5.312153
1250,-3.733835,-0.500559,-5.312153
1251,-3.956572,-1.310076,-5.503755
1252,-2.098037,2.203418,-3.580554
1253,0.64426,7.40061,-0.720901
1254,3.147056,13.285173,2.038162
1255,3.147056,13.285173,2.038162
1256,3.829636,19.155366,1.566343
1257,3.532654,18.35064,0.66821
1258,3.388953,15.426321,0.843047
1259,3.350632,11.177556,0.661025
1260,2.936294,7.575447,-0.002395
1261,2.41418,5.364844,-0.809517
1262,1.563948,4.402046,-1.219065
1263,1.128054,4.859495,-1.152004
1264,0.969983,6.662944,-0.737666
1265,0.969983,6.662944,-0.737666
1266,1.410667,10.700947,-0.560435
1267,1.951941,11.931987,-0.6251
1268,2.323169,12.24334,-0.467029
1269,2.744692,11.733201,-0.193997
1270,2.744692,11.733201,-0.193997
1271,3.142266,10.006392,0.170046
1272,3.271597,9.311836,0.131726
1273,3.09197,9.024434,-0.059875
1274,2.802173,8.880732,-0.352068
1275,2.802173,8.880732,-0.352068
1276,2.052532,9.371711,-0.716111
1277,1.745969,9.714199,-0.560435
1278,1.650168,9.989626,-0.280217
1279,1.638193,10.150093,0.234712
1280,1.650168,10.121353,0.895737
1281,1.650168,9.963281,1.281335
1282,1.810635,9.319021,1.195115
1283,1.88009,9.060359,0.807122
1284,1.927991,9.623188,0.292192
1285,1.872905,10.859019,0.088616
1286,2.289639,12.324771,0.433499
1287,2.909949,12.695999,0.895737
1288,3.508704,11.989468,1.23583
1289,3.719465,11.211086,1.322051
1290,3.863167,10.595566,1.19751
1291,3.867957,10.492581,0.972378
1292,3.978127,10.811118,0.443079
1293,3.939807,11.793076,0.079036
1294,4.078718,13.606106,-1.065784
1295,5.065466,15.289805,-2.203418
1296,5.786367,16.123271,-2.818938
1297,4.902605,15.299385,-2.301614
1298,3.10155,13.412109,-0.694556
1299,0.874182,11.273357,0.831072
1300,-0.855022,9.726174,0.890947
1301,-1.997446,8.717871,0.296982
1302,-2.933899,8.226892,-0.222737
1303,-3.415298,8.58854,-0.716111
1304,-3.456013,10.157278,-0.910107
1305,-3.456013,10.157278,-0.910107
1306,-0.878972,14.295872,-0.878972
1307,1.214275,16.307688,-0.522114
1308,2.759063,16.774717,-0.091011
1309,3.278782,15.210769,-0.335303
1310,3.278782,15.210769,-0.335303
1311,2.107617,11.67093,-0.696951
1312,1.542393,10.914104,-2.526746
1313,0.821492,10.300979,-3.458408
1314,0.134121,9.778865,-0.699346
1315,-0.016765,9.831555,-1.674119
1316,-0.392783,9.82437,-3.388953
1317,0.632285,10.066267,-1.86093
1318,1.642983,10.427915,-1.504072
1319,2.217788,10.286609,-2.169888
1320,2.217788,10.286609,-2.169888
1321,2.684817,9.359736,-2.5004
1322,2.488425,8.646021,-2.248923
1323,2.026187,7.812554,-1.714834
1324,1.501677,6.940767,-1.070574
1325,1.120869,6.274951,-0.570015
1326,0.797542,5.599556,-0.110171
1327,0.61073,5.015171,0.328118
1328,0.423918,4.507427,0.917292
1329,0.131726,4.016448,1.657354
1330,-0.114961,3.786526,2.366279
1331,-0.237107,3.805686,3.08239
1332,-0.122146,4.148174,3.592529
1333,0.174836,4.905,3.891907
1334,0.665815,6.057004,4.184099
1335,0.665815,6.057004,4.184099
1336,1.796265,8.741821,4.646338
1337,2.251318,10.205178,4.976851
1338,2.450105,11.692485,5.740862
1339,2.450105,11.692485,5.740862
1340,2.577041,13.105547,5.975574
1341,2.718347,13.800103,4.629573
1342,2.761458,13.050461,4.222419
1343,2.533931,11.639795,4.002078
1344,1.973496,9.996812,3.841611
1345,1.973496,9.996812,3.841611
1346,0.265847,7.534731,4.91458
1347,-0.852627,8.289163,6.035449
1348,-2.794988,9.905801,6.253396
1349,-3.903882,12.739109,3.913462
1350,-3.903882,12.739109,3.913462
1351,3.01533,19.619401,2.378254
1352,5.154082,19.619401,-1.963916
1353,4.821174,17.246536,-2.720742
1354,2.773433,12.473262,-1.355581
1355,0.308958,7.194639,-2.569856
1356,-1.698069,2.215393,-4.155359
1357,-2.311194,-0.847837,-4.713398
1358,-2.629731,-1.81782,-5.029541
1359,-2.543511,-0.984353,-5.839058
1360,-0.946033,2.217788,-4.823569
1361,1.544788,7.122788,-1.916016
1362,3.573369,12.966636,1.547183
1363,3.968547,17.75428,2.845283
1364,3.293152,19.619401,2.076482
1365,3.01533,19.619401,1.068179
1366,3.326682,16.185542,0.728086
1367,3.501519,11.191926,-0.064666
1368,3.240461,7.225774,-1.108894
1369,2.735112,5.075046,-2.363884
1370,2.387834,5.137317,-2.624941
1371,2.114802,6.227051,-2.280059
1372,2.179468,7.965835,-1.78429
1373,2.088457,9.616003,-1.068179
1374,2.021396,10.935659,-0.114961
1375,2.021396,10.935659,-0.114961
1376,2.555486,11.864927,0.764011
1377,3.07281,11.845767,0.953218
1378,3.405718,11.388318,1.037043
1379,3.357817,10.423125,0.687371
1380,3.357817,10.423125,0.687371
1381,2.965034,9.539363,0.306563
1382,1.654958,8.784932,-0.007185
1383,1.075364,8.892708,0.311353
1384,0.749641,9.259146,0.452659
1385,0.811912,9.481882,0.687371
1386,1.120869,9.723779,0.840652
1387,1.549578,9.874666,0.967588
1388,1.908831,9.788445,0.958008
1389,2.162703,9.297466,0.696951
1390,2.162703,9.297466,0.696951
1391,2.268083,8.459209,-0.055085
1392,2.289639,8.447234,-0.409548
1393,2.184258,8.926238,-0.318538
1394,2.236948,9.359736,-0.217947
1395,2.548301,9.678274,-0.174836
1396,2.912344,9.884246,-0.00479
1397,3.324287,9.917776,0.332908
1398,3.317102,9.635164,0.519719
1399,3.02012,9.196875,0.694556
1400,2.785408,8.923843,0.651445
1401,2.4525,8.859177,0.716111
1402,2.105222,8.844807,0.735271
1403,1.508862,8.576565,1.135239
1404,1.372346,8.463999,1.017883
1405,2.033372,9.010063,0.833467
1406,2.711162,11.397898,-0.907712
1407,3.7027,14.168936,-1.918411
1408,5.839058,16.041841,-1.501677
1409,6.957532,16.635806,-0.965193
1410,6.397097,15.876584,-1.310076
1411,4.873865,14.360537,-2.181863
1412,3.245251,12.710369,-3.137476
1413,1.518442,11.469749,-3.587739
1414,-0.05269,11.120076,-4.038003
1415,-0.05269,11.120076,-4.038003
1416,-1.566343,12.557087,-3.508704
1417,-1.185535,13.206138,-2.46687
1418,-0.682581,13.277988,-1.334026
1419,-0.467029,13.043276,-0.831072
1420,-0.536484,12.480447,-0.996328
1421,-0.965193,11.745176,-1.171165
1422,-1.408271,11.177556,-1.453777
1423,-1.908831,11.01709,-1.777104
1424,-2.059717,11.237432,-2.287244
1425,-2.078877,11.611055,-2.349514
1426,-1.971101,11.70925,-2.246528
1427,-1.626218,11.445798,-1.959126
1428,-1.338816,10.633887,-1.559158
1429,-0.938848,9.826765,-1.549578
1430,-0.938848,9.826765,-1.549578
1431,-0.217947,8.55501,-1.820215
1432,0.239502,8.425679,-1.753154
1433,0.886157,8.349038,-1.918411
1434,1.511257,8.55022,-1.908831
1435,1.511257,8.55022,-1.908831
1436,1.829795,8.880732,-1.78908
1437,1.726809,8.887917,-1.82261
1438,1.532813,8.820857,-1.539998
1439,1.295706,8.792117,-1.290916
1440,1.295706,8.792117,-1.290916
1441,0.802332,8.720266,-1.159189
1442,0.287402,8.60291,-1.199905
1443,-0.069456,8.370593,-1.22146
1444,-0.153281,8.248447,-1.17356
1445,-0.153281,8.162227,-0.914897
1446,-0.117356,8.248447,-0.481399
1447,-0.079036,8.363408,-0.04311
1448,-0.237107,8.595725,0.380808
1449,-0.359253,9.017249,0.756826
1450,-0.306563,9.627979,1.092129
1451,-0.04311,10.226733,1.346001
1452,0.198787,10.782378,1.583108
1453,0.364043,10.887759,1.530417
1454,0.58678,10.566826,1.506467
1455,0.58678,10.566826,1.506467
1456,0.871787,9.297466,1.561553
1457,0.919687,8.844807,1.005908
1458,0.948428,8.653206,-0.296982
1459,1.015488,8.753796,-1.396296
1460,0.931663,9.132209,-1.89925
1461,0.718506,9.687854,-1.913621
1462,0.718506,9.687854,-1.913621
1463,0.502954,10.36325,-1.573528
1464,0.637075,12.145144,-1.27415
1465,0.637075,12.145144,-1.27415
1466,1.19751,13.091177,-0.797542
1467,1.257385,12.928315,0.122146
1468,1.166375,12.3104,0.878972
1469,0.823887,11.333232,1.319656
1470,0.55804,10.250684,0.895737
1471,0.560435,9.436377,0.129331
1472,0.728086,8.763376,-0.704136
1473,0.876577,8.399333,-1.513652
1474,0.974773,8.428074,-1.985471
1475,0.862207,8.840017,-2.021396
1476,0.852627,9.369316,-1.858535
1477,0.864602,10.015972,-1.389111
1478,0.953218,10.36325,-1.001118
1479,1.099314,10.571616,-0.687371
1480,1.26457,10.645862,-0.392783
1481,1.429827,10.528506,-0.404758
1482,1.631008,10.351274,-0.481399
1483,1.796265,10.121353,-0.684976
1484,1.796265,10.121353,-0.684976
1485,1.724414,9.84353,-0.991538
1486,1.566343,9.908196,-1.135239
